time,acc_x,acc_y,acc_z
1648531510031,-0.04142597115222834,-0.09241178180112475,0.011153146079446091
1648531510062,-0.04142597115222834,-0.09241178180112475,0.011153146079446091
1648531510093,-0.04301927773500635,-0.09241178180112475,0.007966532913890064
1648531510124,-0.04142597115222834,-0.09400508838390277,0.007966532913890064
1648531510156,-0.04142597115222834,-0.09241178180112475,0.007966532913890064
1648531510187,-0.04142597115222834,-0.09400508838390277,0.007966532913890064
1648531510218,-0.04301927773500635,-0.09400508838390277,0.007966532913890064
1648531510249,-0.04142597115222834,-0.09400508838390277,0.007966532913890064
1648531510281,-0.04142597115222834,-0.09400508838390277,0.006373226331112052
1648531510312,-0.04142597115222834,-0.09241178180112475,0.007966532913890064
1648531510343,-0.04142597115222834,-0.09400508838390277,0.007966532913890064
1648531510374,-0.039832664569450324,-0.09400508838390277,0.007966532913890064
1648531510406,-0.039832664569450324,-0.09400508838390277,0.007966532913890064
1648531510437,-0.039832664569450324,-0.09400508838390277,0.009559839496668077
1648531510468,-0.039832664569450324,-0.09241178180112475,0.009559839496668077
1648531510499,-0.039832664569450324,-0.09400508838390277,0.011153146079446091
1648531510531,-0.04142597115222834,-0.09400508838390277,0.009559839496668077
1648531510562,-0.04142597115222834,-0.09400508838390277,0.009559839496668077
1648531510593,-0.04142597115222834,-0.09241178180112475,0.009559839496668077
1648531510624,-0.04142597115222834,-0.09241178180112475,0.009559839496668077
1648531510656,-0.04301927773500635,-0.09241178180112475,0.007966532913890064
1648531510687,-0.04301927773500635,-0.09241178180112475,0.007966532913890064
1648531510718,-0.04301927773500635,-0.09081847521834674,0.009559839496668077
1648531510749,-0.04301927773500635,-0.09081847521834674,0.007966532913890064
1648531510781,-0.04301927773500635,-0.09241178180112475,0.007966532913890064
1648531510812,-0.044612584317784365,-0.09400508838390277,0.009559839496668077
1648531510843,-0.04301927773500635,-0.09081847521834674,0.009559839496668077
1648531510874,-0.04301927773500635,-0.09081847521834674,0.009559839496668077
1648531510906,-0.04301927773500635,-0.09241178180112475,0.011153146079446091
1648531510937,-0.04142597115222834,-0.09241178180112475,0.009559839496668077
1648531510968,-0.04301927773500635,-0.09241178180112475,0.009559839496668077
1648531510999,-0.04301927773500635,-0.09241178180112475,0.009559839496668077
1648531511031,-0.04301927773500635,-0.09241178180112475,0.009559839496668077
1648531511062,-0.04301927773500635,-0.09081847521834674,0.009559839496668077
1648531511093,-0.04301927773500635,-0.09081847521834674,0.009559839496668077
1648531511124,-0.04301927773500635,-0.09241178180112475,0.009559839496668077
1648531511156,-0.044612584317784365,-0.09241178180112475,0.009559839496668077
1648531511187,-0.04301927773500635,-0.09241178180112475,0.009559839496668077
1648531511218,-0.04301927773500635,-0.09241178180112475,0.009559839496668077
1648531511249,-0.04301927773500635,-0.09241178180112475,0.009559839496668077
1648531511281,-0.04142597115222834,-0.09241178180112475,0.009559839496668077
1648531511312,-0.04301927773500635,-0.09241178180112475,0.009559839496668077
1648531511343,-0.04301927773500635,-0.09241178180112475,0.009559839496668077
1648531511374,-0.04301927773500635,-0.09241178180112475,0.009559839496668077
1648531511406,-0.04301927773500635,-0.09241178180112475,0.009559839496668077
1648531511437,-0.04301927773500635,-0.09241178180112475,0.009559839496668077
1648531511468,-0.044612584317784365,-0.09400508838390277,0.009559839496668077
1648531511499,-0.04301927773500635,-0.09241178180112475,0.011153146079446091
1648531511531,-0.04301927773500635,-0.09081847521834674,0.011153146079446091
1648531511562,-0.04301927773500635,-0.09081847521834674,0.011153146079446091
1648531511593,-0.04142597115222834,-0.09400508838390277,0.009559839496668077
1648531511624,-0.04301927773500635,-0.09400508838390277,0.009559839496668077
1648531511656,-0.04301927773500635,-0.09241178180112475,0.007966532913890064
1648531511687,-0.04301927773500635,-0.09241178180112475,0.007966532913890064
1648531511718,-0.04301927773500635,-0.09081847521834674,0.007966532913890064
1648531511749,-0.04301927773500635,-0.09241178180112475,0.007966532913890064
1648531511781,-0.04301927773500635,-0.09241178180112475,0.007966532913890064
1648531511812,-0.04301927773500635,-0.09241178180112475,0.007966532913890064
1648531511843,-0.04301927773500635,-0.09241178180112475,0.009559839496668077
1648531511874,-0.04301927773500635,-0.09241178180112475,0.009559839496668077
1648531511906,-0.04301927773500635,-0.09241178180112475,0.009559839496668077
1648531511937,-0.04301927773500635,-0.09241178180112475,0.009559839496668077
1648531511968,-0.04301927773500635,-0.09241178180112475,0.009559839496668077
1648531511999,-0.04301927773500635,-0.09241178180112475,0.009559839496668077
1648531512031,-0.04301927773500635,-0.09241178180112475,0.009559839496668077
1648531512062,-0.04301927773500635,-0.09241178180112475,0.009559839496668077
1648531512093,-0.04301927773500635,-0.09241178180112475,0.007966532913890064
1648531512124,-0.044612584317784365,-0.09400508838390277,0.007966532913890064
1648531512156,-0.04301927773500635,-0.09241178180112475,0.009559839496668077
1648531512187,-0.04142597115222834,-0.09241178180112475,0.009559839496668077
1648531512218,-0.04142597115222834,-0.09241178180112475,0.009559839496668077
1648531512249,-0.04301927773500635,-0.09241178180112475,0.009559839496668077
1648531512281,-0.04301927773500635,-0.09241178180112475,0.007966532913890064
1648531512312,-0.04301927773500635,-0.09241178180112475,0.007966532913890064
1648531512343,-0.04301927773500635,-0.09081847521834674,0.007966532913890064
1648531512374,-0.04301927773500635,-0.09081847521834674,0.007966532913890064
1648531512406,-0.04301927773500635,-0.09241178180112475,0.007966532913890064
1648531512437,-0.04301927773500635,-0.09241178180112475,0.009559839496668077
1648531512468,-0.04301927773500635,-0.09241178180112475,0.007966532913890064
1648531512499,-0.04301927773500635,-0.09241178180112475,0.007966532913890064
1648531512531,-0.04301927773500635,-0.09241178180112475,0.007966532913890064
1648531512562,-0.04301927773500635,-0.09241178180112475,0.009559839496668077
1648531512593,-0.04301927773500635,-0.09241178180112475,0.009559839496668077
1648531512624,-0.04301927773500635,-0.09081847521834674,0.007966532913890064
1648531512656,-0.04301927773500635,-0.09241178180112475,0.007966532913890064
1648531512687,-0.04301927773500635,-0.09241178180112475,0.007966532913890064
1648531512718,-0.04301927773500635,-0.09241178180112475,0.007966532913890064
1648531512749,-0.04301927773500635,-0.09400508838390277,0.007966532913890064
1648531512781,-0.04301927773500635,-0.09400508838390277,0.007966532913890064
1648531512812,-0.04301927773500635,-0.09241178180112475,0.009559839496668077
1648531512843,-0.04142597115222834,-0.09241178180112475,0.009559839496668077
1648531512874,-0.04142597115222834,-0.09400508838390277,0.009559839496668077
1648531512906,-0.04301927773500635,-0.09241178180112475,0.007966532913890064
1648531512937,-0.044612584317784365,-0.09241178180112475,0.007966532913890064
1648531512968,-0.044612584317784365,-0.09241178180112475,0.007966532913890064
1648531512999,-0.044612584317784365,-0.09241178180112475,0.007966532913890064
1648531513031,-0.044612584317784365,-0.09241178180112475,0.007966532913890064
1648531513062,-0.04301927773500635,-0.09241178180112475,0.009559839496668077
1648531513093,-0.04301927773500635,-0.09241178180112475,0.009559839496668077
1648531513124,-0.04142597115222834,-0.09241178180112475,0.009559839496668077
1648531513156,-0.04301927773500635,-0.09241178180112475,0.009559839496668077
1648531513187,-0.04301927773500635,-0.09241178180112475,0.007966532913890064
1648531513218,-0.04301927773500635,-0.09241178180112475,0.009559839496668077
1648531513249,-0.04301927773500635,-0.09241178180112475,0.007966532913890064
1648531513281,-0.04301927773500635,-0.09241178180112475,0.009559839496668077
1648531513312,-0.04301927773500635,-0.09241178180112475,0.009559839496668077
1648531513343,-0.04301927773500635,-0.09241178180112475,0.009559839496668077
1648531513374,-0.04142597115222834,-0.09241178180112475,0.009559839496668077
1648531513406,-0.04301927773500635,-0.09400508838390277,0.009559839496668077
1648531513437,-0.04301927773500635,-0.09241178180112475,0.009559839496668077
1648531513468,-0.04301927773500635,-0.09081847521834674,0.009559839496668077
1648531513499,-0.04142597115222834,-0.09241178180112475,0.009559839496668077
1648531513531,-0.04142597115222834,-0.09241178180112475,0.009559839496668077
1648531513562,-0.04301927773500635,-0.09241178180112475,0.007966532913890064
1648531513593,-0.04301927773500635,-0.09241178180112475,0.009559839496668077
1648531513624,-0.04301927773500635,-0.09241178180112475,0.009559839496668077
1648531513656,-0.04301927773500635,-0.09241178180112475,0.009559839496668077
1648531513687,-0.04301927773500635,-0.09241178180112475,0.009559839496668077
1648531513718,-0.04301927773500635,-0.09241178180112475,0.009559839496668077
1648531513749,-0.04142597115222834,-0.09241178180112475,0.009559839496668077
1648531513781,-0.04142597115222834,-0.09241178180112475,0.009559839496668077
1648531513812,-0.04142597115222834,-0.09241178180112475,0.009559839496668077
1648531513843,-0.04301927773500635,-0.09241178180112475,0.009559839496668077
1648531513874,-0.04142597115222834,-0.09241178180112475,0.009559839496668077
1648531513906,-0.04301927773500635,-0.09241178180112475,0.009559839496668077
1648531513937,-0.04301927773500635,-0.09241178180112475,0.009559839496668077
1648531513968,-0.04301927773500635,-0.09241178180112475,0.009559839496668077
1648531513999,-0.04142597115222834,-0.09241178180112475,0.009559839496668077
1648531514031,-0.04301927773500635,-0.09241178180112475,0.009559839496668077
1648531514062,-0.04301927773500635,-0.09400508838390277,0.009559839496668077
1648531514093,-0.04301927773500635,-0.09081847521834674,0.009559839496668077
1648531514124,-0.04142597115222834,-0.09081847521834674,0.009559839496668077
1648531514156,-0.04142597115222834,-0.09400508838390277,0.009559839496668077
1648531514187,-0.04301927773500635,-0.09400508838390277,0.007966532913890064
1648531514218,-0.04142597115222834,-0.09241178180112475,0.009559839496668077
1648531514249,-0.04301927773500635,-0.09241178180112475,0.009559839496668077
1648531514281,-0.04301927773500635,-0.09241178180112475,0.009559839496668077
1648531514312,-0.04301927773500635,-0.09241178180112475,0.009559839496668077
1648531514343,-0.04301927773500635,-0.09241178180112475,0.009559839496668077
1648531514374,-0.04142597115222834,-0.09241178180112475,0.009559839496668077
1648531514406,-0.04142597115222834,-0.09241178180112475,0.009559839496668077
1648531514437,-0.04142597115222834,-0.09241178180112475,0.009559839496668077
1648531514468,-0.04142597115222834,-0.09241178180112475,0.007966532913890064
1648531514499,-0.04142597115222834,-0.09241178180112475,0.007966532913890064
1648531514531,-0.04301927773500635,-0.09241178180112475,0.007966532913890064
1648531514562,-0.04301927773500635,-0.09241178180112475,0.007966532913890064
1648531514593,-0.04142597115222834,-0.09400508838390277,0.009559839496668077
1648531514624,-0.04142597115222834,-0.09241178180112475,0.009559839496668077
1648531514656,-0.04142597115222834,-0.09400508838390277,0.009559839496668077
1648531514687,-0.04142597115222834,-0.09400508838390277,0.009559839496668077
1648531514718,-0.039832664569450324,-0.09241178180112475,0.009559839496668077
1648531514749,-0.039832664569450324,-0.09241178180112475,0.009559839496668077
1648531514781,-0.039832664569450324,-0.09241178180112475,0.009559839496668077
1648531514812,-0.04301927773500635,-0.09241178180112475,0.007966532913890064
1648531514843,-0.04301927773500635,-0.09241178180112475,0.009559839496668077
1648531514874,-0.04301927773500635,-0.09241178180112475,0.009559839496668077
1648531514906,-0.04301927773500635,-0.09241178180112475,0.009559839496668077
1648531514937,-0.04142597115222834,-0.09241178180112475,0.011153146079446091
1648531514968,-0.04142597115222834,-0.09241178180112475,0.009559839496668077
1648531514999,-0.03823935798667231,-0.09081847521834674,0.009559839496668077
1648531515031,-0.03823935798667231,-0.09241178180112475,0.009559839496668077
1648531515062,-0.04142597115222834,-0.09400508838390277,0.007966532913890064
1648531515093,-0.039832664569450324,-0.09241178180112475,0.009559839496668077
1648531515124,-0.04142597115222834,-0.09241178180112475,0.009559839496668077
1648531515156,-0.04142597115222834,-0.09400508838390277,0.009559839496668077
1648531515187,-0.04301927773500635,-0.09400508838390277,0.009559839496668077
1648531515218,-0.04301927773500635,-0.09400508838390277,0.007966532913890064
1648531515249,-0.04142597115222834,-0.09241178180112475,0.009559839496668077
1648531515281,-0.04142597115222834,-0.09241178180112475,0.009559839496668077
1648531515312,-0.04142597115222834,-0.09400508838390277,0.007966532913890064
1648531515343,-0.04142597115222834,-0.09241178180112475,0.009559839496668077
1648531515374,-0.04142597115222834,-0.09081847521834674,0.009559839496668077
1648531515406,-0.039832664569450324,-0.09400508838390277,0.009559839496668077
1648531515437,-0.04142597115222834,-0.09400508838390277,0.007966532913890064
1648531515468,-0.04142597115222834,-0.09400508838390277,0.007966532913890064
1648531515499,-0.04142597115222834,-0.09241178180112475,0.007966532913890064
1648531515531,-0.04301927773500635,-0.09241178180112475,0.009559839496668077
1648531515562,-0.04142597115222834,-0.09241178180112475,0.009559839496668077
1648531515593,-0.04142597115222834,-0.09241178180112475,0.007966532913890064
1648531515624,-0.03823935798667231,-0.09241178180112475,0.007966532913890064
1648531515656,-0.039832664569450324,-0.09400508838390277,0.007966532913890064
1648531515687,-0.04142597115222834,-0.09400508838390277,0.007966532913890064
1648531515718,-0.04301927773500635,-0.09400508838390277,0.007966532913890064
1648531515749,-0.04301927773500635,-0.09241178180112475,0.011153146079446091
1648531515781,-0.04301927773500635,-0.09081847521834674,0.009559839496668077
1648531515812,-0.04142597115222834,-0.09241178180112475,0.009559839496668077
1648531515843,-0.03823935798667231,-0.09400508838390277,0.006373226331112052
1648531515874,-0.03823935798667231,-0.09400508838390277,0.007966532913890064
1648531515906,-0.039832664569450324,-0.09400508838390277,0.006373226331112052
1648531515937,-0.04142597115222834,-0.09400508838390277,0.009559839496668077
1648531515968,-0.04142597115222834,-0.09241178180112475,0.009559839496668077
1648531515999,-0.04301927773500635,-0.09241178180112475,0.009559839496668077
1648531516031,-0.04301927773500635,-0.09241178180112475,0.007966532913890064
1648531516062,-0.04142597115222834,-0.09400508838390277,0.007966532913890064
1648531516093,-0.04142597115222834,-0.09400508838390277,0.006373226331112052
1648531516124,-0.04142597115222834,-0.09400508838390277,0.006373226331112052
1648531516156,-0.04142597115222834,-0.09241178180112475,0.007966532913890064
1648531516187,-0.04142597115222834,-0.09241178180112475,0.007966532913890064
1648531516218,-0.04142597115222834,-0.09400508838390277,0.007966532913890064
1648531516249,-0.039832664569450324,-0.09400508838390277,0.009559839496668077
1648531516281,-0.039832664569450324,-0.09400508838390277,0.009559839496668077
1648531516312,-0.039832664569450324,-0.09241178180112475,0.007966532913890064
1648531516343,-0.039832664569450324,-0.09400508838390277,0.007966532913890064
1648531516374,-0.039832664569450324,-0.09400508838390277,0.007966532913890064
1648531516406,-0.04142597115222834,-0.09241178180112475,0.007966532913890064
1648531516437,-0.04142597115222834,-0.09241178180112475,0.009559839496668077
1648531516468,-0.04142597115222834,-0.09241178180112475,0.009559839496668077
1648531516499,-0.04142597115222834,-0.09241178180112475,0.009559839496668077
1648531516531,-0.04301927773500635,-0.09241178180112475,0.009559839496668077
1648531516562,-0.04301927773500635,-0.09400508838390277,0.007966532913890064
1648531516593,-0.04301927773500635,-0.09241178180112475,0.007966532913890064
1648531516624,-0.04142597115222834,-0.09241178180112475,0.007966532913890064
1648531516656,-0.04142597115222834,-0.09400508838390277,0.007966532913890064
1648531516687,-0.04301927773500635,-0.09400508838390277,0.007966532913890064
1648531516718,-0.04142597115222834,-0.09241178180112475,0.007966532913890064
1648531516749,-0.04142597115222834,-0.09241178180112475,0.007966532913890064
1648531516781,-0.04142597115222834,-0.09241178180112475,0.009559839496668077
1648531516812,-0.04142597115222834,-0.09400508838390277,0.009559839496668077
1648531516843,-0.04142597115222834,-0.09400508838390277,0.009559839496668077
1648531516874,-0.04142597115222834,-0.09400508838390277,0.007966532913890064
1648531516906,-0.04142597115222834,-0.09241178180112475,0.007966532913890064
1648531516937,-0.04142597115222834,-0.09241178180112475,0.009559839496668077
1648531516968,-0.04142597115222834,-0.09241178180112475,0.009559839496668077
1648531516999,-0.04142597115222834,-0.09241178180112475,0.009559839496668077
1648531517031,-0.04142597115222834,-0.09400508838390277,0.009559839496668077
1648531517062,-0.04142597115222834,-0.09241178180112475,0.009559839496668077
1648531517093,-0.04142597115222834,-0.09241178180112475,0.009559839496668077
1648531517124,-0.04142597115222834,-0.09241178180112475,0.009559839496668077
1648531517156,-0.04142597115222834,-0.09400508838390277,0.007966532913890064
1648531517187,-0.04301927773500635,-0.09400508838390277,0.009559839496668077
1648531517218,-0.04142597115222834,-0.09400508838390277,0.009559839496668077
1648531517249,-0.04142597115222834,-0.09241178180112475,0.009559839496668077
1648531517281,-0.039832664569450324,-0.09400508838390277,0.009559839496668077
1648531517312,-0.04142597115222834,-0.09400508838390277,0.009559839496668077
1648531517343,-0.04142597115222834,-0.09400508838390277,0.007966532913890064
1648531517374,-0.04142597115222834,-0.09241178180112475,0.007966532913890064
1648531517406,-0.04142597115222834,-0.09241178180112475,0.009559839496668077
1648531517437,-0.04142597115222834,-0.09241178180112475,0.009559839496668077
1648531517468,-0.04142597115222834,-0.09241178180112475,0.009559839496668077
1648531517499,-0.04142597115222834,-0.09400508838390277,0.009559839496668077
1648531517531,-0.04142597115222834,-0.09241178180112475,0.009559839496668077
1648531517562,-0.04142597115222834,-0.09241178180112475,0.009559839496668077
1648531517593,-0.04142597115222834,-0.09241178180112475,0.009559839496668077
1648531517624,-0.04142597115222834,-0.09241178180112475,0.009559839496668077
1648531517656,-0.04142597115222834,-0.09241178180112475,0.009559839496668077
1648531517687,-0.04142597115222834,-0.09241178180112475,0.009559839496668077
1648531517718,-0.04142597115222834,-0.09241178180112475,0.009559839496668077
1648531517749,-0.039832664569450324,-0.09241178180112475,0.009559839496668077
1648531517781,-0.04142597115222834,-0.09400508838390277,0.009559839496668077
1648531517812,-0.04142597115222834,-0.09400508838390277,0.009559839496668077
1648531517843,-0.04142597115222834,-0.09081847521834674,0.009559839496668077
1648531517874,-0.039832664569450324,-0.09241178180112475,0.009559839496668077
1648531517906,-0.04142597115222834,-0.09400508838390277,0.009559839496668077
1648531517937,-0.04142597115222834,-0.09241178180112475,0.009559839496668077
1648531517968,-0.04142597115222834,-0.09241178180112475,0.009559839496668077
1648531517999,-0.04142597115222834,-0.09241178180112475,0.009559839496668077
1648531518031,-0.04142597115222834,-0.09241178180112475,0.009559839496668077
1648531518062,-0.04142597115222834,-0.09241178180112475,0.009559839496668077
1648531518093,-0.04142597115222834,-0.09400508838390277,0.009559839496668077
1648531518124,-0.039832664569450324,-0.09400508838390277,0.009559839496668077
1648531518156,-0.04142597115222834,-0.09400508838390277,0.009559839496668077
1648531518187,-0.04142597115222834,-0.09400508838390277,0.009559839496668077
1648531518218,-0.04142597115222834,-0.09400508838390277,0.009559839496668077
1648531518249,-0.04142597115222834,-0.09241178180112475,0.009559839496668077
1648531518281,-0.04142597115222834,-0.09241178180112475,0.009559839496668077
1648531518312,-0.04142597115222834,-0.09241178180112475,0.009559839496668077
1648531518343,-0.04142597115222834,-0.09241178180112475,0.009559839496668077
1648531518374,-0.04142597115222834,-0.09241178180112475,0.009559839496668077
1648531518406,-0.04301927773500635,-0.09400508838390277,0.009559839496668077
1648531518437,-0.04301927773500635,-0.09241178180112475,0.009559839496668077
1648531518468,-0.04301927773500635,-0.09241178180112475,0.009559839496668077
1648531518499,-0.039832664569450324,-0.09241178180112475,0.011153146079446091
1648531518531,-0.04142597115222834,-0.09400508838390277,0.009559839496668077
1648531518562,-0.04142597115222834,-0.09241178180112475,0.007966532913890064
1648531518593,-0.04301927773500635,-0.09241178180112475,0.009559839496668077
1648531518624,-0.04301927773500635,-0.09241178180112475,0.009559839496668077
1648531518656,-0.04301927773500635,-0.09241178180112475,0.011153146079446091
1648531518687,-0.04142597115222834,-0.09241178180112475,0.009559839496668077
1648531518718,-0.04142597115222834,-0.09241178180112475,0.009559839496668077
1648531518749,-0.039832664569450324,-0.09400508838390277,0.009559839496668077
1648531518781,-0.04142597115222834,-0.09400508838390277,0.007966532913890064
1648531518812,-0.04142597115222834,-0.09400508838390277,0.009559839496668077
1648531518843,-0.04142597115222834,-0.09241178180112475,0.009559839496668077
1648531518874,-0.04142597115222834,-0.09241178180112475,0.009559839496668077
1648531518906,-0.04142597115222834,-0.09400508838390277,0.009559839496668077
1648531518937,-0.039832664569450324,-0.09400508838390277,0.009559839496668077
1648531518968,-0.039832664569450324,-0.09241178180112475,0.009559839496668077
1648531518999,-0.04142597115222834,-0.09241178180112475,0.009559839496668077
1648531519031,-0.04301927773500635,-0.09241178180112475,0.009559839496668077
1648531519062,-0.04142597115222834,-0.09241178180112475,0.009559839496668077
1648531519093,-0.039832664569450324,-0.09241178180112475,0.009559839496668077
1648531519124,-0.04142597115222834,-0.09400508838390277,0.009559839496668077
1648531519156,-0.04301927773500635,-0.09241178180112475,0.007966532913890064
1648531519187,-0.04142597115222834,-0.09241178180112475,0.009559839496668077
1648531519218,-0.04301927773500635,-0.09241178180112475,0.009559839496668077
1648531519249,-0.04301927773500635,-0.09241178180112475,0.009559839496668077
1648531519281,-0.04301927773500635,-0.09241178180112475,0.009559839496668077
1648531519312,-0.04301927773500635,-0.09241178180112475,0.009559839496668077
1648531519343,-0.04142597115222834,-0.09241178180112475,0.009559839496668077
1648531519374,-0.04142597115222834,-0.09400508838390277,0.009559839496668077
1648531519406,-0.04142597115222834,-0.09400508838390277,0.009559839496668077
1648531519437,-0.04142597115222834,-0.09241178180112475,0.009559839496668077
1648531519468,-0.04142597115222834,-0.09241178180112475,0.009559839496668077
1648531519499,-0.04142597115222834,-0.09241178180112475,0.009559839496668077
1648531519531,-0.04301927773500635,-0.09400508838390277,0.007966532913890064
1648531519562,-0.04301927773500635,-0.09400508838390277,0.009559839496668077
1648531519593,-0.04301927773500635,-0.09241178180112475,0.009559839496668077
1648531519625,-0.04301927773500635,-0.09400508838390277,0.009559839496668077
1648531519656,-0.04142597115222834,-0.09241178180112475,0.009559839496668077
1648531519687,-0.04301927773500635,-0.09241178180112475,0.009559839496668077
1648531519718,-0.04142597115222834,-0.09241178180112475,0.009559839496668077
1648531519750,-0.04142597115222834,-0.09400508838390277,0.007966532913890064
1648531519781,-0.04301927773500635,-0.09241178180112475,0.007966532913890064
1648531519812,-0.04142597115222834,-0.09241178180112475,0.009559839496668077
1648531519843,-0.04301927773500635,-0.09241178180112475,0.009559839496668077
1648531519875,-0.04301927773500635,-0.09241178180112475,0.009559839496668077
1648531519906,-0.04301927773500635,-0.09241178180112475,0.009559839496668077
1648531519937,-0.04142597115222834,-0.09241178180112475,0.009559839496668077
1648531519968,-0.04142597115222834,-0.09241178180112475,0.009559839496668077
1648531520000,-0.04142597115222834,-0.09400508838390277,0.009559839496668077
1648531520031,-0.04142597115222834,-0.09400508838390277,0.009559839496668077
1648531520062,-0.04142597115222834,-0.09241178180112475,0.009559839496668077
1648531520093,-0.04142597115222834,-0.09241178180112475,0.009559839496668077
1648531520125,-0.04142597115222834,-0.09400508838390277,0.009559839496668077
1648531520156,-0.04301927773500635,-0.09241178180112475,0.009559839496668077
1648531520187,-0.04142597115222834,-0.09241178180112475,0.009559839496668077
1648531520218,-0.04142597115222834,-0.09241178180112475,0.009559839496668077
1648531520250,-0.04301927773500635,-0.09400508838390277,0.009559839496668077
1648531520281,-0.04301927773500635,-0.09400508838390277,0.009559839496668077
1648531520312,-0.04142597115222834,-0.09081847521834674,0.009559839496668077
1648531520343,-0.04142597115222834,-0.09241178180112475,0.009559839496668077
1648531520375,-0.04142597115222834,-0.09400508838390277,0.009559839496668077
1648531520406,-0.04301927773500635,-0.09241178180112475,0.007966532913890064
1648531520437,-0.04142597115222834,-0.09241178180112475,0.009559839496668077
1648531520468,-0.04301927773500635,-0.09241178180112475,0.009559839496668077
1648531520500,-0.04301927773500635,-0.09241178180112475,0.009559839496668077
1648531520531,-0.04142597115222834,-0.09241178180112475,0.009559839496668077
1648531520562,-0.04142597115222834,-0.09241178180112475,0.009559839496668077
1648531520593,-0.04142597115222834,-0.09241178180112475,0.009559839496668077
1648531520625,-0.04142597115222834,-0.09241178180112475,0.009559839496668077
1648531520656,-0.04142597115222834,-0.09241178180112475,0.007966532913890064
1648531520687,-0.04142597115222834,-0.09241178180112475,0.009559839496668077
1648531520718,-0.04142597115222834,-0.09400508838390277,0.009559839496668077
1648531520750,-0.04142597115222834,-0.09400508838390277,0.009559839496668077
1648531520781,-0.04142597115222834,-0.09400508838390277,0.009559839496668077
1648531520812,-0.04142597115222834,-0.09241178180112475,0.009559839496668077
1648531520843,-0.04142597115222834,-0.09400508838390277,0.009559839496668077
1648531520875,-0.04142597115222834,-0.09241178180112475,0.009559839496668077
1648531520906,-0.04301927773500635,-0.09400508838390277,0.007966532913890064
1648531520937,-0.04142597115222834,-0.09400508838390277,0.009559839496668077
1648531520968,-0.04142597115222834,-0.09241178180112475,0.009559839496668077
1648531521000,-0.04142597115222834,-0.09081847521834674,0.009559839496668077
1648531521031,-0.04142597115222834,-0.09400508838390277,0.009559839496668077
1648531521062,-0.04142597115222834,-0.09400508838390277,0.007966532913890064
1648531521093,-0.04142597115222834,-0.09241178180112475,0.007966532913890064
1648531521125,-0.04142597115222834,-0.09241178180112475,0.007966532913890064
1648531521156,-0.04142597115222834,-0.09241178180112475,0.007966532913890064
1648531521187,-0.04301927773500635,-0.09241178180112475,0.009559839496668077
1648531521218,-0.04142597115222834,-0.09241178180112475,0.009559839496668077
1648531521250,-0.04142597115222834,-0.09241178180112475,0.009559839496668077
1648531521281,-0.04142597115222834,-0.09241178180112475,0.009559839496668077
1648531521312,-0.04142597115222834,-0.09241178180112475,0.009559839496668077
1648531521343,-0.04142597115222834,-0.09400508838390277,0.009559839496668077
1648531521375,-0.04142597115222834,-0.09241178180112475,0.009559839496668077
1648531521406,-0.04142597115222834,-0.09400508838390277,0.009559839496668077
1648531521437,-0.04142597115222834,-0.09241178180112475,0.009559839496668077
1648531521468,-0.04142597115222834,-0.09241178180112475,0.009559839496668077
1648531521500,-0.04142597115222834,-0.09241178180112475,0.009559839496668077
1648531521531,-0.04142597115222834,-0.09241178180112475,0.009559839496668077
1648531521562,-0.04142597115222834,-0.09241178180112475,0.009559839496668077
1648531521593,-0.04301927773500635,-0.09400508838390277,0.009559839496668077
1648531521625,-0.04142597115222834,-0.09400508838390277,0.009559839496668077
1648531521656,-0.04142597115222834,-0.09081847521834674,0.009559839496668077
1648531521687,-0.04142597115222834,-0.09241178180112475,0.009559839496668077
1648531521718,-0.04301927773500635,-0.09400508838390277,0.007966532913890064
1648531521750,-0.06373226331112052,-0.10197162129779283,0.0047799197483340385
1648531521781,-0.07966532913890065,-0.10993815421168289,0.011153146079446091
1648531521812,-0.1465842056155772,-0.1465842056155772,0.028679518490004233
1648531521843,-0.10834484762890488,-0.11153146079446091,0.0860385554700127
1648531521875,-0.10356492788057084,-0.057359036980008465,0.0732921028077886
1648531521906,-0.055765730397230456,0.02708621190722622,0.025492905324448208
1648531521937,-0.04301927773500635,0.055765730397230456,-0.023899598741670195
1648531521968,-0.055765730397230456,0.05257911723167443,-0.03186613165556026
1648531522000,-0.01593306582778013,0.03505274482111628,-0.001593306582778013
1648531522031,0.0,0.030272825072782245,0.04142597115222834
1648531522062,-0.046205890900562374,-0.0047799197483340385,0.0366460514038943
1648531522093,-0.06532556989389854,-0.057359036980008465,0.028679518490004233
1648531522125,-0.09241178180112475,-0.10356492788057084,0.0366460514038943
1648531522156,-0.07647871597334462,-0.13224444637057509,0.03505274482111628
1648531522187,-0.20394324259558566,-0.20394324259558566,0.16251727144335731
1648531522218,-0.08285194230445668,-0.06054565014556449,0.028679518490004233
1648531522250,-0.04779919748334039,-0.04142597115222834,0.06691887647667655
1648531522281,-0.07169879622501059,0.0047799197483340385,0.09081847521834674
1648531522312,-0.05257911723167443,0.01593306582778013,0.09400508838390277
1648531522343,-0.08763186205279071,0.009559839496668077,0.06851218305945456
1648531522375,-0.10675154104612687,0.007966532913890064,0.05417242381445244
1648531522406,-0.08763186205279071,0.011153146079446091,0.06373226331112052
1648531522437,-0.07966532913890065,0.001593306582778013,0.05895234356278648
1648531522468,-0.07807202255612264,0.001593306582778013,0.06054565014556449
1648531522500,-0.07010548964223257,0.009559839496668077,0.0732921028077886
1648531522531,-0.07169879622501059,0.0047799197483340385,0.07010548964223257
1648531522562,-0.0732921028077886,0.001593306582778013,0.06691887647667655
1648531522593,-0.0860385554700127,0.001593306582778013,0.057359036980008465
1648531522625,-0.08285194230445668,0.003186613165556026,0.06851218305945456
1648531522656,-0.0748854093905666,0.001593306582778013,0.06691887647667655
1648531522687,-0.08125863572167866,0.001593306582778013,0.05895234356278648
1648531522718,-0.07966532913890065,-0.001593306582778013,0.06373226331112052
1648531522750,-0.0732921028077886,0.0047799197483340385,0.07169879622501059
1648531522781,-0.07807202255612264,0.0,0.06691887647667655
1648531522812,-0.0860385554700127,-0.001593306582778013,0.062138956728342506
1648531522843,-0.0860385554700127,0.0,0.05895234356278648
1648531522875,-0.07807202255612264,0.0,0.062138956728342506
1648531522906,-0.07647871597334462,0.0,0.06054565014556449
1648531522937,-0.06532556989389854,-0.006373226331112052,0.07010548964223257
1648531522968,-0.0732921028077886,0.0,0.06373226331112052
1648531523000,-0.0860385554700127,0.0047799197483340385,0.05417242381445244
1648531523031,-0.08444524888723469,-0.01752637241055814,0.0493925040661184
1648531523062,-0.10993815421168289,-0.03186613165556026,0.02708621190722622
1648531523093,-0.122684606873907,-0.12746452662224103,0.011153146079446091
1648531523125,-0.09400508838390277,-0.09559839496668078,0.003186613165556026
1648531523156,-0.122684606873907,-0.039832664569450324,-0.0366460514038943
1648531523187,-0.11312476737723892,0.011153146079446091,-0.055765730397230456
1648531523218,-0.0860385554700127,0.012746452662224104,-0.03505274482111628
1648531523250,-0.11949799370835097,-0.046205890900562374,-0.007966532913890064
1648531523281,-0.11153146079446091,-0.0748854093905666,0.011153146079446091
1648531523312,-0.10197162129779283,-0.05895234356278648,0.0
1648531523343,-0.08922516863556873,-0.028679518490004233,-0.009559839496668077
1648531523375,-0.0748854093905666,-0.012746452662224104,-0.04142597115222834
1648531523406,-0.0860385554700127,0.014339759245002116,-0.06691887647667655
1648531523437,-0.0987850081322368,0.011153146079446091,-0.10356492788057084
1648531523468,-0.07966532913890065,0.014339759245002116,-0.0987850081322368
1648531523500,-0.062138956728342506,0.009559839496668077,-0.10515823446334886
1648531523531,-0.0748854093905666,-0.012746452662224104,-0.09400508838390277
1648531523562,-0.09081847521834674,-0.023899598741670195,-0.07647871597334462
1648531523593,-0.07807202255612264,-0.05257911723167443,-0.05257911723167443
1648531523625,-0.10515823446334886,-0.057359036980008465,-0.055765730397230456
1648531523656,-0.08763186205279071,-0.05895234356278648,-0.030272825072782245
1648531523687,-0.07010548964223257,-0.062138956728342506,-0.033459438238338274
1648531523718,-0.0860385554700127,-0.05417242381445244,-0.03823935798667231
1648531523750,-0.10037831471501482,-0.0493925040661184,-0.04779919748334039
1648531523781,-0.10675154104612687,-0.044612584317784365,-0.04301927773500635
1648531523812,-0.15136412536391122,-0.03505274482111628,-0.06373226331112052
1648531523843,-0.15455073852946727,-0.007966532913890064,-0.062138956728342506
1648531523875,-0.1338377529533531,0.0047799197483340385,-0.04142597115222834
1648531523906,-0.10834484762890488,0.02071298557611417,-0.03505274482111628
1648531523937,-0.046205890900562374,0.044612584317784365,-0.050985810648896415
1648531523968,-0.01593306582778013,0.057359036980008465,-0.04301927773500635
1648531524000,-0.014339759245002116,0.062138956728342506,-0.0366460514038943
1648531524031,-0.06691887647667655,0.07807202255612264,-0.06373226331112052
1648531524062,-0.08763186205279071,0.07966532913890065,-0.062138956728342506
1648531524093,-0.13861767270168712,0.06851218305945456,-0.0732921028077886
1648531524125,-0.19916332284725163,0.057359036980008465,-0.0748854093905666
1648531524156,-0.1449908990327992,0.0860385554700127,-0.022306292158892183
1648531524187,-0.13065113978779708,0.09241178180112475,-0.025492905324448208
1648531524218,-0.11312476737723892,0.09081847521834674,-0.01593306582778013
1648531524250,-0.10993815421168289,0.07647871597334462,-0.0047799197483340385
1648531524281,-0.11312476737723892,0.055765730397230456,-0.0047799197483340385
1648531524312,-0.11631138054279495,0.039832664569450324,0.003186613165556026
1648531524343,-0.12746452662224103,0.02071298557611417,-0.007966532913890064
1648531524375,-0.122684606873907,0.007966532913890064,0.011153146079446091
1648531524406,-0.09559839496668078,-0.009559839496668077,0.025492905324448208
1648531524437,-0.06691887647667655,-0.04142597115222834,-0.007966532913890064
1648531524468,-0.03186613165556026,-0.028679518490004233,0.01752637241055814
1648531524500,-0.04301927773500635,-0.006373226331112052,0.028679518490004233
1648531524531,-0.057359036980008465,0.003186613165556026,0.033459438238338274
1648531524562,-0.04142597115222834,0.0,0.039832664569450324
1648531524593,-0.057359036980008465,0.014339759245002116,0.0493925040661184
1648531524625,-0.06532556989389854,0.022306292158892183,0.04142597115222834
1648531524656,-0.04779919748334039,0.025492905324448208,0.028679518490004233
1648531524687,-0.039832664569450324,0.009559839496668077,0.02708621190722622
1648531524718,-0.0366460514038943,0.0047799197483340385,0.03505274482111628
1648531524750,-0.04301927773500635,-0.001593306582778013,0.0366460514038943
1648531524781,-0.050985810648896415,-0.02071298557611417,0.039832664569450324
1648531524812,-0.04779919748334039,-0.028679518490004233,0.04301927773500635
1648531524843,-0.05895234356278648,-0.03823935798667231,0.03186613165556026
1648531524875,-0.07010548964223257,-0.055765730397230456,0.028679518490004233
1648531524906,-0.0748854093905666,-0.0748854093905666,0.044612584317784365
1648531524937,-0.08285194230445668,-0.0987850081322368,0.04779919748334039
1648531524968,-0.0748854093905666,-0.0987850081322368,0.057359036980008465
1648531525000,-0.06851218305945456,-0.07807202255612264,0.06054565014556449
1648531525031,-0.0860385554700127,-0.08125863572167866,0.05417242381445244
1648531525062,-0.0860385554700127,-0.08125863572167866,0.04142597115222834
1648531525093,-0.0732921028077886,-0.08125863572167866,0.02708621190722622
1648531525125,-0.0748854093905666,-0.08285194230445668,0.019119678993336154
1648531525156,-0.06532556989389854,-0.09400508838390277,0.022306292158892183
1648531525187,-0.07010548964223257,-0.20394324259558566,0.20234993601280765
1648531525218,-0.12746452662224103,-0.07966532913890065,0.009559839496668077
1648531525250,-0.07010548964223257,-0.0860385554700127,0.019119678993336154
1648531525281,-0.062138956728342506,-0.07169879622501059,0.030272825072782245
1648531525312,-0.10675154104612687,-0.06851218305945456,0.009559839496668077
1648531525343,-0.09400508838390277,-0.06532556989389854,0.0
1648531525375,-0.08922516863556873,-0.06373226331112052,0.0047799197483340385
1648531525406,-0.08763186205279071,-0.057359036980008465,-0.001593306582778013
1648531525437,-0.08125863572167866,-0.07966532913890065,-0.001593306582778013
1648531525468,-0.0732921028077886,-0.07807202255612264,0.003186613165556026
1648531525500,-0.062138956728342506,-0.055765730397230456,-0.02071298557611417
1648531525531,-0.07010548964223257,-0.06532556989389854,0.001593306582778013
1648531525562,-0.08922516863556873,-0.062138956728342506,-0.014339759245002116
1648531525593,-0.09081847521834674,-0.050985810648896415,-0.001593306582778013
1648531525625,-0.07966532913890065,-0.04301927773500635,0.001593306582778013
1648531525656,-0.08763186205279071,-0.05417242381445244,-0.023899598741670195
1648531525687,-0.08763186205279071,-0.0493925040661184,-0.02071298557611417
1648531525718,-0.0860385554700127,-0.05257911723167443,-0.014339759245002116
1648531525750,-0.0860385554700127,-0.04301927773500635,-0.028679518490004233
1648531525781,-0.0860385554700127,-0.05257911723167443,-0.025492905324448208
1648531525812,-0.08285194230445668,-0.05257911723167443,-0.02071298557611417
1648531525843,-0.08444524888723469,-0.0493925040661184,-0.033459438238338274
1648531525875,-0.08285194230445668,-0.050985810648896415,-0.03186613165556026
1648531525906,-0.07807202255612264,-0.039832664569450324,-0.0366460514038943
1648531525937,-0.07010548964223257,-0.04142597115222834,-0.039832664569450324
1648531525968,-0.07010548964223257,-0.039832664569450324,-0.044612584317784365
1648531526000,-0.0748854093905666,-0.03505274482111628,-0.05417242381445244
1648531526031,-0.07647871597334462,-0.03823935798667231,-0.050985810648896415
1648531526062,-0.08285194230445668,-0.030272825072782245,-0.057359036980008465
1648531526093,-0.08125863572167866,-0.0366460514038943,-0.057359036980008465
1648531526125,-0.07966532913890065,-0.0366460514038943,-0.06054565014556449
1648531526156,-0.08285194230445668,-0.0366460514038943,-0.06851218305945456
1648531526187,-0.07807202255612264,-0.039832664569450324,-0.057359036980008465
1648531526218,-0.08125863572167866,-0.03186613165556026,-0.06054565014556449
1648531526250,-0.07966532913890065,-0.03505274482111628,-0.04779919748334039
1648531526281,-0.0860385554700127,-0.033459438238338274,-0.04142597115222834
1648531526312,-0.08763186205279071,-0.033459438238338274,-0.033459438238338274
1648531526343,-0.0987850081322368,-0.04779919748334039,-0.04142597115222834
1648531526375,-0.10037831471501482,-0.05417242381445244,-0.04142597115222834
1648531526406,-0.09400508838390277,-0.05257911723167443,-0.028679518490004233
1648531526437,-0.08922516863556873,-0.04142597115222834,-0.02708621190722622
1648531526468,-0.08922516863556873,-0.02708621190722622,-0.025492905324448208
1648531526500,-0.08763186205279071,-0.006373226331112052,-0.03505274482111628
1648531526531,-0.08763186205279071,-0.007966532913890064,-0.04142597115222834
1648531526562,-0.08763186205279071,-0.006373226331112052,-0.04779919748334039
1648531526593,-0.0860385554700127,0.001593306582778013,-0.0493925040661184
1648531526625,-0.0860385554700127,0.0,-0.05417242381445244
1648531526656,-0.08922516863556873,-0.009559839496668077,-0.062138956728342506
1648531526687,-0.08444524888723469,-0.028679518490004233,-0.06532556989389854
1648531526718,-0.09559839496668078,-0.030272825072782245,-0.07647871597334462
1648531526750,-0.09559839496668078,-0.04142597115222834,-0.06373226331112052
1648531526781,-0.09719170154945879,-0.03186613165556026,-0.07807202255612264
1648531526812,-0.09719170154945879,-0.03505274482111628,-0.07966532913890065
1648531526843,-0.10515823446334886,-0.04142597115222834,-0.0748854093905666
1648531526875,-0.10834484762890488,-0.039832664569450324,-0.0748854093905666
1648531526906,-0.10356492788057084,-0.04142597115222834,-0.06054565014556449
1648531526937,-0.08922516863556873,-0.03823935798667231,-0.050985810648896415
1648531526968,-0.08763186205279071,-0.03823935798667231,-0.050985810648896415
1648531527000,-0.0748854093905666,-0.0366460514038943,-0.039832664569450324
1648531527031,-0.06851218305945456,-0.046205890900562374,-0.046205890900562374
1648531527062,-0.055765730397230456,-0.0493925040661184,-0.03823935798667231
1648531527093,-0.06532556989389854,-0.05257911723167443,-0.05257911723167443
1648531527125,-0.07169879622501059,-0.055765730397230456,-0.03186613165556026
1648531527156,-0.07966532913890065,-0.05417242381445244,-0.01752637241055814
1648531527187,-0.08444524888723469,-0.062138956728342506,-0.03186613165556026
1648531527218,-0.0860385554700127,-0.06373226331112052,-0.033459438238338274
1648531527250,-0.0860385554700127,-0.0493925040661184,-0.03505274482111628
1648531527281,-0.0860385554700127,-0.046205890900562374,-0.030272825072782245
1648531527312,-0.08763186205279071,-0.046205890900562374,-0.028679518490004233
1648531527343,-0.08285194230445668,-0.039832664569450324,-0.019119678993336154
1648531527375,-0.08763186205279071,-0.03823935798667231,-0.01752637241055814
1648531527406,-0.07169879622501059,-0.039832664569450324,-0.014339759245002116
1648531527437,-0.08763186205279071,-0.050985810648896415,-0.0366460514038943
1648531527468,-0.09081847521834674,-0.062138956728342506,-0.0366460514038943
1648531527500,-0.10356492788057084,-0.062138956728342506,-0.0366460514038943
1648531527531,-0.08763186205279071,-0.062138956728342506,-0.022306292158892183
1648531527562,-0.08125863572167866,-0.062138956728342506,-0.022306292158892183
1648531527593,-0.07807202255612264,-0.06373226331112052,-0.02708621190722622
1648531527625,-0.07010548964223257,-0.057359036980008465,-0.030272825072782245
1648531527656,-0.06532556989389854,-0.06532556989389854,-0.033459438238338274
1648531527687,-0.06373226331112052,-0.0732921028077886,-0.0366460514038943
1648531527718,-0.0493925040661184,-0.07647871597334462,-0.03505274482111628
1648531527750,-0.08444524888723469,-0.06691887647667655,-0.03505274482111628
1648531527781,-0.06373226331112052,-0.05417242381445244,-0.019119678993336154
1648531527812,-0.0860385554700127,-0.06054565014556449,-0.02708621190722622
1648531527843,-0.07966532913890065,-0.057359036980008465,-0.019119678993336154
1648531527875,-0.09241178180112475,-0.06054565014556449,-0.019119678993336154
1648531527906,-0.09559839496668078,-0.06691887647667655,-0.009559839496668077
1648531527937,-0.08922516863556873,-0.055765730397230456,-0.019119678993336154
1648531527968,-0.08763186205279071,-0.07010548964223257,-0.02071298557611417
1648531528000,-0.08285194230445668,-0.07010548964223257,-0.012746452662224104
1648531528031,-0.07807202255612264,-0.062138956728342506,-0.02708621190722622
1648531528062,-0.06691887647667655,-0.06691887647667655,-0.019119678993336154
1648531528093,-0.07010548964223257,-0.06691887647667655,-0.009559839496668077
1648531528125,-0.0860385554700127,-0.07010548964223257,-0.01752637241055814
1648531528156,-0.10356492788057084,-0.08763186205279071,-0.009559839496668077
1648531528187,-0.09400508838390277,-0.10993815421168289,0.022306292158892183
1648531528218,-0.06851218305945456,-0.14339759245002118,0.04779919748334039
1648531528250,-0.10356492788057084,-0.16570388460891336,0.0047799197483340385
1648531528281,-0.08125863572167866,-0.1481775121983552,-0.01593306582778013
1648531528312,-0.055765730397230456,-0.1354310595361311,-0.001593306582778013
1648531528343,-0.06532556989389854,-0.07807202255612264,-0.03505274482111628
1648531528375,-0.1354310595361311,-0.046205890900562374,-0.09241178180112475
1648531528406,-0.06054565014556449,-0.012746452662224104,-0.07966532913890065
1648531528437,-0.028679518490004233,0.028679518490004233,-0.057359036980008465
1648531528468,-0.02708621190722622,0.03505274482111628,-0.030272825072782245
1648531528500,-0.050985810648896415,0.030272825072782245,0.01593306582778013
1648531528531,-0.09559839496668078,0.006373226331112052,0.025492905324448208
1648531528562,-0.11790468712557296,-0.02071298557611417,0.0366460514038943
1648531528593,-0.08922516863556873,-0.025492905324448208,0.09081847521834674
1648531528625,-0.10675154104612687,-0.03505274482111628,0.04142597115222834
1648531528656,-0.18004364385391547,-0.028679518490004233,-0.057359036980008465
1648531528687,-0.13861767270168712,0.0,-0.05417242381445244
1648531528718,-0.16729719119169137,0.01593306582778013,-0.10037831471501482
1648531528750,-0.11153146079446091,-0.011153146079446091,-0.14339759245002118
1648531528781,-0.06532556989389854,0.04142597115222834,-0.14021097928446513
1648531528812,-0.05895234356278648,0.050985810648896415,-0.13224444637057509
1648531528843,-0.025492905324448208,0.07169879622501059,-0.0860385554700127
1648531528875,-0.019119678993336154,0.08285194230445668,-0.06054565014556449
1648531528906,-0.023899598741670195,0.07966532913890065,-0.03186613165556026
1648531528937,-0.011153146079446091,0.07807202255612264,-0.003186613165556026
1648531528968,-0.02708621190722622,0.06373226331112052,-0.001593306582778013
1648531529000,-0.06851218305945456,0.023899598741670195,0.028679518490004233
1648531529031,-0.062138956728342506,-0.02071298557611417,0.0493925040661184
1648531529062,-0.06054565014556449,-0.044612584317784365,0.06532556989389854
1648531529093,-0.10834484762890488,-0.09719170154945879,0.07647871597334462
1648531529125,-0.0748854093905666,-0.11790468712557296,0.04779919748334039
1648531529156,-0.13224444637057509,-0.13224444637057509,0.07966532913890065
1648531529187,-0.14180428586724317,-0.11631138054279495,0.050985810648896415
1648531529218,-0.039832664569450324,-0.05417242381445244,0.050985810648896415
1648531529250,-0.12587122003946302,-0.04142597115222834,0.02708621190722622
1648531529281,-0.10356492788057084,-0.046205890900562374,0.03823935798667231
1648531529312,-0.0987850081322368,-0.057359036980008465,0.033459438238338274
1648531529343,-0.09241178180112475,-0.057359036980008465,0.039832664569450324
1648531529375,-0.09719170154945879,-0.057359036980008465,0.04142597115222834
1648531529406,-0.11949799370835097,-0.057359036980008465,0.04301927773500635
1648531529437,-0.12427791345668501,-0.028679518490004233,0.033459438238338274
1648531529468,-0.1497708187811332,-0.02071298557611417,0.01593306582778013
1648531529500,-0.14021097928446513,0.02071298557611417,-0.007966532913890064
1648531529531,-0.1864168701850275,0.0366460514038943,-0.046205890900562374
1648531529562,-0.19119678993336156,0.055765730397230456,-0.05895234356278648
1648531529593,-0.12905783320501904,0.057359036980008465,-0.04142597115222834
1648531529625,-0.12587122003946302,0.0493925040661184,-0.03505274482111628
1648531529656,-0.10356492788057084,0.025492905324448208,-0.0047799197483340385
1648531529687,-0.06373226331112052,0.0047799197483340385,0.033459438238338274
1648531529718,-0.06851218305945456,-0.012746452662224104,0.04142597115222834
1648531529750,-0.06691887647667655,-0.04301927773500635,0.05417242381445244
1648531529781,-0.05417242381445244,-0.06851218305945456,0.055765730397230456
1648531529812,-0.055765730397230456,-0.08285194230445668,0.055765730397230456
1648531529843,-0.12746452662224103,-0.0987850081322368,0.030272825072782245
1648531529875,-0.11471807396001693,-0.07807202255612264,0.0366460514038943
1648531529906,-0.14339759245002118,-0.046205890900562374,0.014339759245002116
1648531529937,-0.0987850081322368,-0.011153146079446091,0.044612584317784365
1648531529968,-0.0748854093905666,0.01593306582778013,0.046205890900562374
1648531530000,-0.0987850081322368,0.028679518490004233,0.012746452662224104
1648531530031,-0.057359036980008465,0.050985810648896415,0.022306292158892183
1648531530062,-0.0860385554700127,0.057359036980008465,0.009559839496668077
1648531530093,-0.057359036980008465,0.057359036980008465,0.028679518490004233
1648531530125,-0.03823935798667231,0.05895234356278648,0.04779919748334039
1648531530156,-0.07010548964223257,0.04779919748334039,0.009559839496668077
1648531530187,-0.057359036980008465,0.023899598741670195,0.0366460514038943
1648531530218,-0.07169879622501059,0.019119678993336154,0.03823935798667231
1648531530250,-0.0860385554700127,0.03186613165556026,-0.001593306582778013
1648531530281,-0.1338377529533531,0.023899598741670195,0.023899598741670195
1648531530312,-0.10037831471501482,0.0366460514038943,0.046205890900562374
1648531530343,-0.14180428586724317,0.02708621190722622,-0.006373226331112052
1648531530375,-0.14180428586724317,0.04142597115222834,-0.011153146079446091
1648531530406,-0.10356492788057084,0.01593306582778013,0.03186613165556026
1648531530437,-0.12746452662224103,0.012746452662224104,0.006373226331112052
1648531530468,-0.12427791345668501,0.01593306582778013,0.006373226331112052
1648531530500,-0.10037831471501482,0.025492905324448208,0.012746452662224104
1648531530531,-0.10834484762890488,0.007966532913890064,-0.006373226331112052
1648531530562,-0.11471807396001693,0.007966532913890064,-0.019119678993336154
1648531530593,-0.11949799370835097,-0.006373226331112052,-0.023899598741670195
1648531530625,-0.12427791345668501,-0.0047799197483340385,-0.019119678993336154
1648531530656,-0.11312476737723892,-0.009559839496668077,0.001593306582778013
1648531530687,-0.11471807396001693,-0.019119678993336154,0.006373226331112052
1648531530718,-0.11631138054279495,-0.019119678993336154,0.011153146079446091
1648531530750,-0.11312476737723892,-0.02071298557611417,0.02071298557611417
1648531530781,-0.11312476737723892,-0.022306292158892183,0.022306292158892183
1648531530812,-0.09400508838390277,-0.019119678993336154,0.030272825072782245
1648531530843,-0.10037831471501482,-0.01593306582778013,0.0047799197483340385
1648531530875,-0.0860385554700127,-0.014339759245002116,0.030272825072782245
1648531530906,-0.11949799370835097,-0.012746452662224104,0.011153146079446091
1648531530937,-0.10834484762890488,-0.01752637241055814,0.039832664569450324
1648531530968,-0.10515823446334886,-0.025492905324448208,0.05895234356278648
1648531531000,-0.10037831471501482,-0.04142597115222834,0.05257911723167443
1648531531031,-0.07647871597334462,-0.023899598741670195,0.07169879622501059
1648531531062,-0.06691887647667655,-0.009559839496668077,0.06373226331112052
1648531531093,-0.05257911723167443,0.02071298557611417,0.044612584317784365
1648531531125,-0.08125863572167866,0.033459438238338274,0.01752637241055814
1648531531156,-0.08285194230445668,0.057359036980008465,0.003186613165556026
1648531531187,-0.055765730397230456,0.02708621190722622,-0.012746452662224104
1648531531218,-0.13861767270168712,-0.001593306582778013,-0.057359036980008465
1648531531250,-0.1370243661189091,-0.033459438238338274,-0.01752637241055814
1648531531281,-0.11153146079446091,-0.050985810648896415,-0.003186613165556026
1648531531312,-0.12427791345668501,-0.044612584317784365,0.006373226331112052
1648531531343,-0.0987850081322368,-0.028679518490004233,0.009559839496668077
1648531531375,-0.10037831471501482,-0.030272825072782245,0.009559839496668077
1648531531406,-0.10356492788057084,-0.022306292158892183,0.022306292158892183
1648531531437,-0.0987850081322368,-0.014339759245002116,0.019119678993336154
1648531531468,-0.10037831471501482,-0.014339759245002116,0.023899598741670195
1648531531500,-0.09241178180112475,-0.01593306582778013,0.028679518490004233
1648531531531,-0.09400508838390277,-0.014339759245002116,0.03823935798667231
1648531531562,-0.09559839496668078,-0.01593306582778013,0.039832664569450324
1648531531593,-0.09559839496668078,-0.014339759245002116,0.03505274482111628
1648531531625,-0.0987850081322368,-0.019119678993336154,0.033459438238338274
1648531531656,-0.09400508838390277,-0.011153146079446091,0.028679518490004233
1648531531687,-0.08763186205279071,-0.014339759245002116,0.02708621190722622
1648531531718,-0.08922516863556873,-0.01593306582778013,0.02708621190722622
1648531531750,-0.03823935798667231,-0.025492905324448208,0.04142597115222834
1648531531781,-0.06851218305945456,-0.03505274482111628,0.06054565014556449
1648531531812,-0.10834484762890488,-0.04301927773500635,0.0366460514038943
1648531531843,-0.0987850081322368,-0.03823935798667231,0.039832664569450324
1648531531875,-0.0860385554700127,-0.039832664569450324,0.046205890900562374
1648531531906,-0.08763186205279071,-0.03823935798667231,0.05417242381445244
1648531531937,-0.11949799370835097,-0.028679518490004233,0.033459438238338274
1648531531968,-0.10675154104612687,-0.014339759245002116,0.033459438238338274
1648531532000,-0.1370243661189091,-0.025492905324448208,0.02071298557611417
1648531532031,-0.10993815421168289,-0.0366460514038943,0.028679518490004233
1648531532062,-0.13224444637057509,-0.030272825072782245,-0.022306292158892183
1648531532093,-0.20394324259558566,0.006373226331112052,-0.09719170154945879
1648531532125,-0.15455073852946727,0.019119678993336154,-0.0493925040661184
1648531532156,-0.12587122003946302,0.057359036980008465,-0.02708621190722622
1648531532187,-0.13861767270168712,0.07807202255612264,-0.057359036980008465
1648531532218,-0.10993815421168289,0.07169879622501059,-0.04301927773500635
1648531532250,-0.10037831471501482,0.05257911723167443,-0.050985810648896415
1648531532281,-0.10356492788057084,0.039832664569450324,-0.05895234356278648
1648531532312,-0.09719170154945879,0.030272825072782245,-0.04301927773500635
1648531532343,-0.07807202255612264,0.011153146079446091,0.0047799197483340385
1648531532375,-0.08922516863556873,0.014339759245002116,0.01752637241055814
1648531532406,-0.0732921028077886,-0.011153146079446091,0.06054565014556449
1648531532437,-0.07169879622501059,-0.046205890900562374,0.05895234356278648
1648531532468,-0.06373226331112052,-0.055765730397230456,0.06054565014556449
1648531532500,-0.07169879622501059,-0.07966532913890065,0.04301927773500635
1648531532531,-0.0732921028077886,-0.055765730397230456,0.07169879622501059
1648531532562,-0.08444524888723469,-0.014339759245002116,0.0366460514038943
1648531532593,-0.050985810648896415,0.01593306582778013,0.057359036980008465
1648531532625,-0.062138956728342506,0.02071298557611417,0.055765730397230456
1648531532656,-0.06691887647667655,0.039832664569450324,0.05257911723167443
1648531532687,-0.057359036980008465,0.039832664569450324,0.07010548964223257
1648531532718,-0.07966532913890065,0.033459438238338274,0.06054565014556449
1648531532750,-0.06532556989389854,0.01752637241055814,0.06851218305945456
1648531532781,-0.07966532913890065,-0.006373226331112052,0.06054565014556449
1648531532812,-0.0987850081322368,-0.01752637241055814,0.044612584317784365
1648531532843,-0.12746452662224103,-0.04301927773500635,0.019119678993336154
1648531532875,-0.11631138054279495,-0.033459438238338274,0.007966532913890064
1648531532906,-0.10356492788057084,-0.01752637241055814,-0.007966532913890064
1648531532937,-0.0987850081322368,-0.0047799197483340385,-0.01593306582778013
1648531532968,-0.09400508838390277,0.003186613165556026,-0.01593306582778013
1648531533000,-0.08444524888723469,0.03823935798667231,-0.009559839496668077
1648531533031,-0.08763186205279071,0.05417242381445244,-0.014339759245002116
1648531533062,-0.08444524888723469,0.06054565014556449,-0.012746452662224104
1648531533093,-0.10515823446334886,0.06373226331112052,-0.007966532913890064
1648531533125,-0.10515823446334886,0.0732921028077886,-0.014339759245002116
1648531533156,-0.12109130029112898,0.062138956728342506,-0.019119678993336154
1648531533187,-0.122684606873907,0.055765730397230456,-0.003186613165556026
1648531533218,-0.12427791345668501,0.055765730397230456,0.001593306582778013
1648531533250,-0.12587122003946302,0.039832664569450324,0.030272825072782245
1648531533281,-0.11153146079446091,0.01752637241055814,0.05417242381445244
1648531533312,-0.10037831471501482,0.006373226331112052,0.062138956728342506
1648531533343,-0.0860385554700127,-0.006373226331112052,0.07807202255612264
1648531533375,-0.0732921028077886,-0.007966532913890064,0.08444524888723469
1648531533406,-0.0732921028077886,0.0047799197483340385,0.050985810648896415
1648531533437,-0.08125863572167866,0.01752637241055814,0.01593306582778013
1648531533468,-0.08922516863556873,0.028679518490004233,-0.006373226331112052
1648531533500,-0.08444524888723469,0.04301927773500635,-0.023899598741670195
1648531533531,-0.07807202255612264,0.025492905324448208,-0.011153146079446091
1648531533562,-0.08922516863556873,0.011153146079446091,-0.02071298557611417
1648531533593,-0.13224444637057509,-0.02071298557611417,-0.04142597115222834
1648531533625,-0.1720771109400254,-0.04142597115222834,-0.04779919748334039
1648531533656,-0.0987850081322368,-0.05257911723167443,0.007966532913890064
1648531533687,-0.08922516863556873,-0.046205890900562374,0.009559839496668077
1648531533718,-0.1465842056155772,-0.055765730397230456,-0.011153146079446091
1648531533750,-0.09559839496668078,-0.050985810648896415,0.007966532913890064
1648531533781,-0.11631138054279495,-0.04301927773500635,0.028679518490004233
1648531533812,-0.11631138054279495,-0.0366460514038943,0.014339759245002116
1648531533843,-0.09081847521834674,-0.028679518490004233,0.012746452662224104
1648531533875,-0.09559839496668078,-0.02708621190722622,0.012746452662224104
1648531533906,-0.10356492788057084,-0.023899598741670195,0.025492905324448208
1648531533937,-0.10515823446334886,-0.01593306582778013,0.025492905324448208
1648531533968,-0.10834484762890488,-0.014339759245002116,0.023899598741670195
1648531534000,-0.10515823446334886,-0.01752637241055814,0.025492905324448208
1648531534031,-0.10515823446334886,-0.019119678993336154,0.014339759245002116
1648531534062,-0.09719170154945879,-0.02071298557611417,0.01752637241055814
1648531534093,-0.0860385554700127,-0.02071298557611417,0.02071298557611417
1648531534125,-0.10197162129779283,-0.023899598741670195,0.014339759245002116
1648531534156,-0.0860385554700127,-0.028679518490004233,0.030272825072782245
1648531534187,-0.10675154104612687,-0.025492905324448208,0.01593306582778013
1648531534218,-0.11631138054279495,-0.02071298557611417,0.0047799197483340385
1648531534250,-0.06373226331112052,-0.025492905324448208,0.044612584317784365
1648531534281,-0.08285194230445668,-0.05895234356278648,0.028679518490004233
1648531534312,-0.023899598741670195,-0.05417242381445244,0.08763186205279071
1648531534343,-0.039832664569450324,-0.039832664569450324,0.04779919748334039
1648531534375,-0.17845033727113746,-0.05417242381445244,-0.0047799197483340385
1648531534406,-0.1449908990327992,-0.03823935798667231,0.001593306582778013
1648531534437,-0.11471807396001693,-0.01752637241055814,0.02708621190722622
1648531534468,-0.09559839496668078,-0.023899598741670195,0.05895234356278648
1648531534500,-0.10675154104612687,-0.028679518490004233,0.08444524888723469
1648531534531,-0.10834484762890488,-0.025492905324448208,0.0493925040661184
1648531534562,-0.1577373516950233,-0.03186613165556026,-0.001593306582778013
1648531534593,-0.1864168701850275,-0.001593306582778013,-0.04779919748334039
1648531534625,-0.14339759245002118,0.014339759245002116,-0.0493925040661184
1648531534656,-0.09559839496668078,0.03186613165556026,-0.07647871597334462
1648531534687,-0.09400508838390277,0.025492905324448208,-0.10197162129779283
1648531534718,-0.0748854093905666,0.02708621190722622,-0.08922516863556873
1648531534750,-0.08444524888723469,0.025492905324448208,-0.06851218305945456
1648531534781,-0.10675154104612687,0.011153146079446091,-0.030272825072782245
1648531534812,-0.0987850081322368,0.001593306582778013,-0.01593306582778013
1648531534843,-0.0748854093905666,-0.02708621190722622,0.019119678993336154
1648531534875,-0.08444524888723469,-0.04301927773500635,0.025492905324448208
1648531534906,-0.08922516863556873,-0.08285194230445668,0.033459438238338274
1648531534937,-0.11631138054279495,-0.09559839496668078,0.012746452662224104
1648531534968,-0.15614404511224528,-0.08125863572167866,-0.0047799197483340385
1648531535000,-0.07169879622501059,-0.006373226331112052,-0.025492905324448208
1648531535031,-0.1497708187811332,0.046205890900562374,-0.12109130029112898
1648531535062,-0.1736704175228034,0.08125863572167866,-0.16251727144335731
1648531535093,-0.08763186205279071,-0.019119678993336154,-0.009559839496668077
1648531535125,-0.09241178180112475,0.01593306582778013,-0.06054565014556449
1648531535156,-0.05895234356278648,0.025492905324448208,-0.07010548964223257
1648531535187,-0.06054565014556449,0.033459438238338274,-0.06054565014556449
1648531535218,-0.0748854093905666,0.039832664569450324,-0.05417242381445244
1648531535250,-0.0748854093905666,0.039832664569450324,-0.028679518490004233
1648531535281,-0.08125863572167866,-0.003186613165556026,-0.011153146079446091
1648531535312,-0.08444524888723469,-0.012746452662224104,-0.003186613165556026
1648531535343,-0.0987850081322368,-0.046205890900562374,0.019119678993336154
1648531535375,-0.10834484762890488,-0.05257911723167443,0.01752637241055814
1648531535406,-0.11949799370835097,-0.03186613165556026,-0.007966532913890064
1648531535437,-0.1354310595361311,0.0,-0.02708621190722622
1648531535468,-0.09081847521834674,-0.012746452662224104,-0.030272825072782245
1648531535500,-0.10515823446334886,0.007966532913890064,-0.044612584317784365
1648531535531,-0.122684606873907,0.030272825072782245,-0.06054565014556449
1648531535562,-0.07966532913890065,0.025492905324448208,-0.039832664569450324
1648531535593,-0.0732921028077886,0.02708621190722622,-0.044612584317784365
1648531535625,-0.0860385554700127,0.01593306582778013,-0.03823935798667231
1648531535656,-0.10515823446334886,0.011153146079446091,-0.03823935798667231
1648531535687,-0.15295743194668923,-0.006373226331112052,-0.04142597115222834
1648531535718,-0.06691887647667655,0.011153146079446091,0.03505274482111628
1648531535750,-0.12746452662224103,0.001593306582778013,-0.007966532913890064
1648531535781,-0.10993815421168289,-0.003186613165556026,0.01593306582778013
1648531535812,-0.10197162129779283,0.0047799197483340385,0.025492905324448208
1648531535844,-0.122684606873907,0.01752637241055814,0.030272825072782245
1648531535875,-0.09241178180112475,0.055765730397230456,0.03823935798667231
1648531535906,-0.09559839496668078,0.0732921028077886,0.02708621190722622
1648531535937,-0.10515823446334886,0.07966532913890065,0.019119678993336154
1648531535969,-0.08922516863556873,0.07966532913890065,0.02708621190722622
1648531536000,-0.11631138054279495,0.06691887647667655,0.019119678993336154
1648531536031,-0.07966532913890065,0.023899598741670195,0.022306292158892183
1648531536062,-0.07966532913890065,-0.001593306582778013,0.025492905324448208
1648531536094,-0.06851218305945456,-0.0493925040661184,0.04779919748334039
1648531536125,-0.06054565014556449,-0.07169879622501059,0.04779919748334039
1648531536156,-0.10515823446334886,-0.07647871597334462,0.0493925040661184
1648531536187,-0.09081847521834674,-0.06851218305945456,0.062138956728342506
1648531536219,-0.062138956728342506,-0.04142597115222834,0.07169879622501059
1648531536250,-0.06851218305945456,0.009559839496668077,0.0732921028077886
1648531536281,-0.0493925040661184,0.04142597115222834,0.0732921028077886
1648531536312,-0.04779919748334039,0.050985810648896415,0.08444524888723469
1648531536344,-0.09719170154945879,0.025492905324448208,0.08285194230445668
1648531536375,-0.09081847521834674,0.007966532913890064,0.07169879622501059
1648531536406,-0.0732921028077886,-0.0047799197483340385,0.08125863572167866
1648531536437,-0.039832664569450324,-0.012746452662224104,0.07807202255612264
1648531536469,-0.0493925040661184,-0.01593306582778013,0.07169879622501059
1648531536500,-0.028679518490004233,-0.014339759245002116,0.0860385554700127
1648531536531,-0.03823935798667231,-0.01752637241055814,0.08763186205279071
1648531536562,-0.0493925040661184,-0.01752637241055814,0.09081847521834674
1648531536594,-0.039832664569450324,-0.02071298557611417,0.10993815421168289
1648531536625,-0.03505274482111628,-0.019119678993336154,0.0987850081322368
1648531536656,-0.023899598741670195,-0.01593306582778013,0.08125863572167866
1648531536687,-0.033459438238338274,-0.014339759245002116,0.09081847521834674
1648531536719,-0.057359036980008465,-0.009559839496668077,0.0860385554700127
1648531536750,-0.09719170154945879,-0.01752637241055814,0.062138956728342506
1648531536781,-0.062138956728342506,-0.01593306582778013,0.046205890900562374
1648531536812,-0.07966532913890065,-0.01593306582778013,0.039832664569450324
1648531536844,-0.07966532913890065,-0.012746452662224104,0.07966532913890065
1648531536875,-0.07807202255612264,-0.003186613165556026,0.08763186205279071
1648531536906,-0.06851218305945456,0.01752637241055814,0.10197162129779283
1648531536937,-0.07010548964223257,0.012746452662224104,0.10675154104612687
1648531536969,-0.07647871597334462,0.009559839496668077,0.09719170154945879
1648531537000,-0.057359036980008465,0.012746452662224104,0.09400508838390277
1648531537031,-0.062138956728342506,0.011153146079446091,0.08125863572167866
1648531537062,-0.06691887647667655,-0.001593306582778013,0.06532556989389854
1648531537094,-0.06851218305945456,-0.014339759245002116,0.06054565014556449
1648531537125,-0.057359036980008465,-0.02071298557611417,0.05417242381445244
1648531537156,-0.06373226331112052,-0.02071298557611417,0.06054565014556449
1648531537187,-0.057359036980008465,-0.02071298557611417,0.06373226331112052
1648531537219,-0.06851218305945456,-0.02708621190722622,0.05257911723167443
1648531537250,-0.06054565014556449,-0.007966532913890064,0.07169879622501059
1648531537281,-0.07966532913890065,-0.011153146079446091,0.04779919748334039
1648531537312,-0.07807202255612264,-0.007966532913890064,0.046205890900562374
1648531537344,-0.07647871597334462,-0.003186613165556026,0.07807202255612264
1648531537375,-0.06851218305945456,0.001593306582778013,0.09559839496668078
1648531537406,-0.04301927773500635,0.006373226331112052,0.09719170154945879
1648531537437,-0.05895234356278648,0.0047799197483340385,0.10993815421168289
1648531537469,-0.05417242381445244,0.012746452662224104,0.10356492788057084
1648531537500,-0.062138956728342506,0.001593306582778013,0.09081847521834674
1648531537531,-0.04301927773500635,-0.003186613165556026,0.0860385554700127
1648531537562,-0.028679518490004233,-0.02071298557611417,0.09400508838390277
1648531537594,-0.05895234356278648,-0.03823935798667231,0.07807202255612264
1648531537625,-0.06054565014556449,-0.07010548964223257,0.0987850081322368
1648531537656,-0.05417242381445244,-0.07169879622501059,0.0987850081322368
1648531537687,-0.02708621190722622,-0.050985810648896415,0.09241178180112475
1648531537719,-0.0366460514038943,-0.039832664569450324,0.10993815421168289
1648531537750,-0.02708621190722622,0.006373226331112052,0.09400508838390277
1648531537781,0.007966532913890064,0.04142597115222834,0.09719170154945879
1648531537812,0.030272825072782245,0.057359036980008465,0.08763186205279071
1648531537844,0.05257911723167443,0.09241178180112475,0.050985810648896415
1648531537875,-0.09719170154945879,0.11471807396001693,-0.04301927773500635
1648531537906,-0.04301927773500635,0.122684606873907,-0.0047799197483340385
1648531537937,0.03186613165556026,0.08922516863556873,0.030272825072782245
1648531537969,-0.01752637241055814,0.07807202255612264,0.01752637241055814
1648531538000,-0.09241178180112475,0.04779919748334039,0.019119678993336154
1648531538031,-0.05257911723167443,0.01593306582778013,0.0493925040661184
1648531538062,-0.09719170154945879,-0.011153146079446091,0.039832664569450324
1648531538094,-0.11153146079446091,-0.0493925040661184,0.07647871597334462
1648531538125,-0.09400508838390277,-0.04779919748334039,0.08125863572167866
1648531538156,-0.09400508838390277,-0.06373226331112052,0.0748854093905666
1648531538187,-0.08444524888723469,-0.057359036980008465,0.08444524888723469
1648531538219,-0.06373226331112052,-0.057359036980008465,0.0860385554700127
1648531538250,-0.08763186205279071,-0.057359036980008465,0.06851218305945456
1648531538281,-0.062138956728342506,-0.0493925040661184,0.06532556989389854
1648531538312,-0.06851218305945456,-0.07169879622501059,0.10197162129779283
1648531538344,-0.07966532913890065,-0.019119678993336154,0.06054565014556449
1648531538375,-0.062138956728342506,-0.02071298557611417,0.07966532913890065
1648531538406,-0.05895234356278648,-0.009559839496668077,0.07647871597334462
1648531538437,-0.08763186205279071,-0.009559839496668077,0.07966532913890065
1648531538469,-0.08763186205279071,-0.003186613165556026,0.0748854093905666
1648531538500,-0.08125863572167866,-0.007966532913890064,0.0748854093905666
1648531538531,-0.0748854093905666,-0.007966532913890064,0.07169879622501059
1648531538562,-0.07647871597334462,-0.0047799197483340385,0.0748854093905666
1648531538594,-0.07807202255612264,-0.011153146079446091,0.0748854093905666
1648531538625,-0.08444524888723469,-0.019119678993336154,0.062138956728342506
1648531538656,-0.10515823446334886,-0.025492905324448208,0.044612584317784365
1648531538687,-0.07647871597334462,-0.030272825072782245,0.04142597115222834
1648531538719,-0.07647871597334462,-0.02708621190722622,0.03823935798667231
1648531538750,-0.062138956728342506,-0.0366460514038943,0.05895234356278648
1648531538781,-0.07807202255612264,-0.06373226331112052,0.03823935798667231
1648531538812,-0.07807202255612264,-0.07807202255612264,0.033459438238338274
1648531538844,-0.08285194230445668,-0.055765730397230456,0.03823935798667231
1648531538875,-0.1338377529533531,-0.022306292158892183,0.019119678993336154
1648531538906,-0.10675154104612687,-0.028679518490004233,0.033459438238338274
1648531538937,-0.08444524888723469,-0.033459438238338274,0.06851218305945456
1648531538969,-0.0987850081322368,-0.030272825072782245,0.06691887647667655
1648531539000,-0.05257911723167443,-0.01752637241055814,0.08763186205279071
1648531539031,-0.05895234356278648,-0.022306292158892183,0.08922516863556873
1648531539062,-0.09719170154945879,-0.02071298557611417,0.0732921028077886
1648531539094,-0.05895234356278648,0.01752637241055814,0.07647871597334462
1648531539125,-0.0748854093905666,0.028679518490004233,0.062138956728342506
1648531539156,-0.06532556989389854,0.02708621190722622,0.05257911723167443
1648531539187,-0.122684606873907,0.10037831471501482,-0.03186613165556026
1648531539219,-0.12427791345668501,0.11471807396001693,-0.023899598741670195
1648531539250,-0.01752637241055814,0.12427791345668501,0.003186613165556026
1648531539281,-0.06691887647667655,0.11153146079446091,-0.012746452662224104
1648531539312,-0.07010548964223257,0.0987850081322368,0.001593306582778013
1648531539344,-0.07966532913890065,0.07010548964223257,0.007966532913890064
1648531539375,-0.0732921028077886,0.02708621190722622,0.05257911723167443
1648531539406,-0.07647871597334462,0.0047799197483340385,0.050985810648896415
1648531539437,-0.06851218305945456,-0.030272825072782245,0.050985810648896415
1648531539469,-0.055765730397230456,-0.044612584317784365,0.07169879622501059
1648531539500,-0.08285194230445668,-0.0732921028077886,0.07647871597334462
1648531539531,-0.06691887647667655,-0.06851218305945456,0.0748854093905666
1648531539562,-0.06054565014556449,-0.06851218305945456,0.07647871597334462
1648531539594,-0.07010548964223257,-0.0732921028077886,0.07807202255612264
1648531539625,-0.11153146079446091,-0.030272825072782245,0.06373226331112052
1648531539656,-0.062138956728342506,-0.023899598741670195,0.07966532913890065
1648531539687,-0.06691887647667655,-0.012746452662224104,0.07647871597334462
1648531539719,-0.06851218305945456,-0.007966532913890064,0.08285194230445668
1648531539750,-0.0860385554700127,-0.009559839496668077,0.07010548964223257
1648531539781,-0.07647871597334462,-0.022306292158892183,0.07010548964223257
1648531539812,-0.06691887647667655,-0.01752637241055814,0.0748854093905666
1648531539844,-0.07169879622501059,-0.022306292158892183,0.055765730397230456
1648531539875,-0.07647871597334462,-0.033459438238338274,0.05417242381445244
1648531539906,-0.10356492788057084,-0.039832664569450324,0.03505274482111628
1648531539937,-0.0732921028077886,-0.03505274482111628,0.06691887647667655
1648531539969,-0.08444524888723469,-0.03505274482111628,0.046205890900562374
1648531540000,-0.06532556989389854,-0.012746452662224104,0.0493925040661184
1648531540031,-0.04142597115222834,-0.01752637241055814,0.07169879622501059
1648531540062,-0.062138956728342506,-0.023899598741670195,0.07010548964223257
1648531540094,-0.057359036980008465,-0.0366460514038943,0.0860385554700127
1648531540125,-0.055765730397230456,-0.04301927773500635,0.09241178180112475
1648531540156,-0.05895234356278648,-0.0493925040661184,0.08922516863556873
1648531540187,-0.08125863572167866,-0.06054565014556449,0.0732921028077886
1648531540219,-0.09400508838390277,-0.050985810648896415,0.06373226331112052
1648531540250,-0.11153146079446091,-0.03823935798667231,0.05895234356278648
1648531540281,-0.08285194230445668,-0.05257911723167443,0.07807202255612264
1648531540312,-0.10037831471501482,-0.06373226331112052,0.0748854093905666
1648531540344,-0.08763186205279071,-0.07010548964223257,0.0732921028077886
1648531540375,-0.09400508838390277,-0.06054565014556449,0.06054565014556449
1648531540406,-0.08763186205279071,-0.050985810648896415,0.055765730397230456
1648531540437,-0.08444524888723469,-0.028679518490004233,0.03823935798667231
1648531540469,-0.08444524888723469,-0.019119678993336154,0.03186613165556026
1648531540500,-0.09719170154945879,-0.006373226331112052,0.01752637241055814
1648531540531,-0.10197162129779283,0.012746452662224104,0.003186613165556026
1648531540562,-0.11153146079446091,0.01752637241055814,-0.007966532913890064
1648531540594,-0.122684606873907,0.028679518490004233,-0.025492905324448208
1648531540625,-0.10515823446334886,0.04301927773500635,-0.028679518490004233
1648531540656,-0.08285194230445668,0.04779919748334039,-0.01752637241055814
1648531540687,-0.07010548964223257,0.04142597115222834,-0.01752637241055814
1648531540719,-0.08125863572167866,0.03823935798667231,-0.02708621190722622
1648531540750,-0.07647871597334462,0.050985810648896415,-0.03505274482111628
1648531540781,-0.05895234356278648,0.07010548964223257,-0.003186613165556026
1648531540812,-0.055765730397230456,0.07647871597334462,0.006373226331112052
1648531540844,-0.09241178180112475,0.050985810648896415,0.01593306582778013
1648531540875,-0.09400508838390277,0.028679518490004233,0.03823935798667231
1648531540906,-0.10356492788057084,0.012746452662224104,0.05895234356278648
1648531540937,-0.07647871597334462,-0.006373226331112052,0.07169879622501059
1648531540969,-0.08285194230445668,-0.01593306582778013,0.07010548964223257
1648531541000,-0.07966532913890065,-0.023899598741670195,0.07169879622501059
1648531541031,-0.10675154104612687,-0.033459438238338274,0.06532556989389854
1648531541062,-0.08444524888723469,-0.033459438238338274,0.07647871597334462
1648531541094,-0.07807202255612264,-0.019119678993336154,0.07966532913890065
1648531541125,-0.09559839496668078,-0.02708621190722622,0.06054565014556449
1648531541156,-0.09559839496668078,-0.02071298557611417,0.06054565014556449
1648531541187,-0.0732921028077886,-0.012746452662224104,0.05257911723167443
1648531541219,-0.08763186205279071,-0.02071298557611417,0.044612584317784365
1648531541250,-0.08763186205279071,-0.023899598741670195,0.033459438238338274
1648531541281,-0.09400508838390277,-0.030272825072782245,0.033459438238338274
1648531541312,-0.08922516863556873,-0.0366460514038943,0.03823935798667231
1648531541344,-0.10675154104612687,-0.044612584317784365,0.0366460514038943
1648531541375,-0.08763186205279071,-0.04142597115222834,0.0366460514038943
1648531541406,-0.10197162129779283,-0.04301927773500635,0.028679518490004233
1648531541437,-0.11312476737723892,-0.03505274482111628,0.01593306582778013
1648531541469,-0.10037831471501482,-0.028679518490004233,0.023899598741670195
1648531541500,-0.09559839496668078,-0.028679518490004233,0.030272825072782245
1648531541531,-0.10197162129779283,-0.025492905324448208,0.03186613165556026
1648531541562,-0.11631138054279495,-0.033459438238338274,0.03505274482111628
1648531541594,-0.08285194230445668,-0.01593306582778013,0.03823935798667231
1648531541625,-0.11790468712557296,-0.01593306582778013,0.01593306582778013
1648531541656,-0.10356492788057084,-0.014339759245002116,0.023899598741670195
1648531541687,-0.09241178180112475,-0.022306292158892183,0.039832664569450324
1648531541719,-0.09719170154945879,-0.023899598741670195,0.03823935798667231
1648531541750,-0.09081847521834674,-0.02071298557611417,0.04301927773500635
1648531541781,-0.09559839496668078,-0.019119678993336154,0.04142597115222834
1648531541812,-0.09559839496668078,-0.02071298557611417,0.039832664569450324
1648531541844,-0.09400508838390277,-0.022306292158892183,0.03505274482111628
1648531541875,-0.09241178180112475,-0.030272825072782245,0.044612584317784365
1648531541906,-0.08444524888723469,-0.030272825072782245,0.050985810648896415
1648531541937,-0.08285194230445668,-0.039832664569450324,0.057359036980008465
1648531541969,-0.09719170154945879,-0.05895234356278648,0.05417242381445244
1648531542000,-0.06851218305945456,-0.046205890900562374,0.06373226331112052
1648531542031,-0.08922516863556873,-0.0366460514038943,0.044612584317784365
1648531542062,-0.09241178180112475,-0.01752637241055814,0.011153146079446091
1648531542094,-0.1481775121983552,0.025492905324448208,-0.04779919748334039
1648531542125,-0.08922516863556873,0.02708621190722622,-0.011153146079446091
1648531542156,-0.0860385554700127,0.014339759245002116,0.0
1648531542187,-0.09081847521834674,-0.009559839496668077,0.009559839496668077
1648531542219,-0.10993815421168289,-0.019119678993336154,0.011153146079446091
1648531542250,-0.08922516863556873,-0.02708621190722622,0.019119678993336154
1648531542281,-0.09559839496668078,-0.033459438238338274,0.014339759245002116
1648531542312,-0.11471807396001693,-0.03505274482111628,0.0
1648531542344,-0.10356492788057084,-0.02708621190722622,0.014339759245002116
1648531542375,-0.08922516863556873,-0.02708621190722622,0.028679518490004233
1648531542406,-0.12109130029112898,-0.028679518490004233,0.025492905324448208
1648531542437,-0.08285194230445668,-0.01593306582778013,0.05417242381445244
1648531542469,-0.10197162129779283,-0.009559839496668077,0.03823935798667231
1648531542500,-0.11790468712557296,-0.011153146079446091,0.022306292158892183
1648531542531,-0.08285194230445668,-0.01593306582778013,0.04142597115222834
1648531542562,-0.08444524888723469,-0.01752637241055814,0.03823935798667231
1648531542594,-0.11153146079446091,-0.01752637241055814,0.022306292158892183
1648531542625,-0.08125863572167866,-0.01593306582778013,0.030272825072782245
1648531542656,-0.09081847521834674,-0.014339759245002116,0.028679518490004233
1648531542687,-0.11949799370835097,-0.01752637241055814,0.009559839496668077
1648531542719,-0.10993815421168289,-0.01752637241055814,0.014339759245002116
1648531542750,-0.09081847521834674,-0.022306292158892183,0.028679518490004233
1648531542781,-0.08125863572167866,-0.030272825072782245,0.05417242381445244
1648531542812,-0.039832664569450324,-0.03505274482111628,0.07169879622501059
1648531542844,-0.03186613165556026,-0.03186613165556026,0.062138956728342506
1648531542875,-0.10834484762890488,-0.03505274482111628,0.05417242381445244
1648531542906,-0.09719170154945879,-0.028679518490004233,0.050985810648896415
1648531542937,-0.10993815421168289,-0.006373226331112052,0.03505274482111628
1648531542969,-0.11153146079446091,0.0,0.03186613165556026
1648531543000,-0.11790468712557296,0.003186613165556026,0.030272825072782245
1648531543031,-0.09241178180112475,-0.01752637241055814,0.057359036980008465
1648531543062,-0.09081847521834674,-0.01752637241055814,0.05417242381445244
1648531543094,-0.10037831471501482,-0.022306292158892183,0.04779919748334039
1648531543125,-0.10834484762890488,-0.014339759245002116,0.011153146079446091
1648531543156,-0.11790468712557296,-0.0047799197483340385,0.022306292158892183
1648531543187,-0.11312476737723892,0.023899598741670195,0.019119678993336154
1648531543219,-0.11949799370835097,0.033459438238338274,0.007966532913890064
1648531543250,-0.10993815421168289,0.03823935798667231,0.006373226331112052
1648531543281,-0.10197162129779283,0.044612584317784365,0.003186613165556026
1648531543312,-0.10834484762890488,0.04142597115222834,0.0
1648531543344,-0.11471807396001693,0.039832664569450324,-0.003186613165556026
1648531543375,-0.11949799370835097,0.05417242381445244,-0.012746452662224104
1648531543406,-0.12905783320501904,0.055765730397230456,-0.022306292158892183
1648531543437,-0.10834484762890488,0.05417242381445244,-0.003186613165556026
1648531543469,-0.11631138054279495,0.046205890900562374,-0.006373226331112052
1648531543500,-0.12109130029112898,0.025492905324448208,-0.007966532913890064
1648531543531,-0.0987850081322368,0.007966532913890064,0.009559839496668077
1648531543562,-0.10037831471501482,0.001593306582778013,0.003186613165556026
1648531543594,-0.08125863572167866,-0.02708621190722622,0.023899598741670195
1648531543625,-0.06851218305945456,-0.0493925040661184,0.03823935798667231
1648531543656,-0.0493925040661184,-0.05895234356278648,0.0493925040661184
1648531543687,-0.09241178180112475,-0.09719170154945879,0.044612584317784365
1648531543719,-0.07010548964223257,-0.11153146079446091,0.050985810648896415
1648531543750,-0.08763186205279071,-0.11153146079446091,0.04301927773500635
1648531543781,-0.09719170154945879,-0.04142597115222834,0.033459438238338274
1648531543812,-0.10197162129779283,-0.02071298557611417,0.006373226331112052
1648531543844,-0.05257911723167443,0.0047799197483340385,0.05417242381445244
1648531543875,-0.08125863572167866,0.012746452662224104,0.07807202255612264
1648531543906,-0.0987850081322368,0.014339759245002116,0.0748854093905666
1648531543937,-0.10197162129779283,0.001593306582778013,0.06054565014556449
1648531543969,-0.11790468712557296,0.006373226331112052,0.04779919748334039
1648531544000,-0.09400508838390277,0.01752637241055814,0.050985810648896415
1648531544031,-0.08763186205279071,0.006373226331112052,0.06054565014556449
1648531544062,-0.08125863572167866,0.003186613165556026,0.055765730397230456
1648531544094,-0.09559839496668078,-0.003186613165556026,0.039832664569450324
1648531544125,-0.0987850081322368,-0.006373226331112052,0.023899598741670195
1648531544156,-0.11153146079446091,-0.009559839496668077,0.01752637241055814
1648531544187,-0.08763186205279071,-0.012746452662224104,0.025492905324448208
1648531544219,-0.0987850081322368,-0.007966532913890064,0.023899598741670195
1648531544250,-0.09719170154945879,-0.003186613165556026,0.03823935798667231
1648531544281,-0.0987850081322368,0.001593306582778013,0.03186613165556026
1648531544312,-0.09241178180112475,0.009559839496668077,0.028679518490004233
1648531544344,-0.10356492788057084,0.007966532913890064,0.02071298557611417
1648531544375,-0.11631138054279495,0.0047799197483340385,0.019119678993336154
1648531544406,-0.11312476737723892,0.001593306582778013,0.022306292158892183
1648531544437,-0.09559839496668078,-0.001593306582778013,0.033459438238338274
1648531544469,-0.10515823446334886,-0.001593306582778013,0.02071298557611417
1648531544500,-0.09400508838390277,-0.003186613165556026,0.023899598741670195
1648531544531,-0.09081847521834674,-0.003186613165556026,0.028679518490004233
1648531544562,-0.09081847521834674,-0.003186613165556026,0.028679518490004233
1648531544594,-0.08922516863556873,-0.006373226331112052,0.03186613165556026
1648531544625,-0.08922516863556873,-0.006373226331112052,0.046205890900562374
1648531544656,-0.0860385554700127,-0.006373226331112052,0.0493925040661184
1648531544687,-0.10675154104612687,-0.006373226331112052,0.03186613165556026
1648531544719,-0.09559839496668078,-0.003186613165556026,0.030272825072782245
1648531544750,-0.12746452662224103,-0.009559839496668077,-0.001593306582778013
1648531544781,-0.10515823446334886,-0.0047799197483340385,0.03186613165556026
1648531544812,-0.11471807396001693,-0.0047799197483340385,0.028679518490004233
1648531544844,-0.08285194230445668,0.0,0.05257911723167443
1648531544875,-0.09559839496668078,-0.011153146079446091,0.04779919748334039
1648531544906,-0.10675154104612687,-0.01593306582778013,0.0493925040661184
1648531544937,-0.09400508838390277,-0.039832664569450324,0.06851218305945456
1648531544969,-0.09400508838390277,-0.05417242381445244,0.07169879622501059
1648531545000,-0.08125863572167866,-0.05895234356278648,0.0748854093905666
1648531545031,-0.0860385554700127,-0.05257911723167443,0.05257911723167443
1648531545062,-0.08444524888723469,-0.04779919748334039,0.04142597115222834
1648531545094,-0.10037831471501482,-0.019119678993336154,0.012746452662224104
1648531545125,-0.11153146079446091,0.0047799197483340385,-0.02708621190722622
1648531545156,-0.12905783320501904,0.022306292158892183,-0.03505274482111628
1648531545187,-0.12746452662224103,0.044612584317784365,-0.046205890900562374
1648531545219,-0.10834484762890488,0.04779919748334039,-0.04301927773500635
1648531545250,-0.11949799370835097,0.039832664569450324,-0.04142597115222834
1648531545281,-0.11312476737723892,0.044612584317784365,-0.04142597115222834
1648531545312,-0.09400508838390277,0.04142597115222834,-0.025492905324448208
1648531545344,-0.10037831471501482,0.028679518490004233,-0.02071298557611417
1648531545375,-0.08922516863556873,0.012746452662224104,-0.001593306582778013
1648531545406,-0.07966532913890065,0.007966532913890064,0.0047799197483340385
1648531545437,-0.11631138054279495,0.0,-0.001593306582778013
1648531545469,-0.11471807396001693,-0.0047799197483340385,0.001593306582778013
1648531545500,-0.12109130029112898,-0.022306292158892183,0.001593306582778013
1648531545531,-0.122684606873907,-0.019119678993336154,0.007966532913890064
1648531545562,-0.13224444637057509,-0.02708621190722622,0.0047799197483340385
1648531545594,-0.10197162129779283,-0.03505274482111628,0.019119678993336154
1648531545625,-0.14021097928446513,-0.03505274482111628,0.009559839496668077
1648531545656,-0.11631138054279495,-0.02708621190722622,0.01593306582778013
1648531545687,-0.10675154104612687,-0.019119678993336154,0.006373226331112052
1648531545719,-0.11312476737723892,-0.02071298557611417,0.014339759245002116
1648531545750,-0.10037831471501482,-0.006373226331112052,0.022306292158892183
1648531545781,-0.10515823446334886,-0.006373226331112052,0.03186613165556026
1648531545812,-0.09719170154945879,-0.0047799197483340385,0.030272825072782245
1648531545844,-0.11153146079446091,-0.011153146079446091,0.014339759245002116
1648531545875,-0.0987850081322368,-0.006373226331112052,0.019119678993336154
1648531545906,-0.08922516863556873,-0.007966532913890064,0.028679518490004233
1648531545937,-0.07169879622501059,-0.003186613165556026,0.04301927773500635
1648531545969,-0.09241178180112475,-0.023899598741670195,0.05895234356278648
1648531546000,-0.10356492788057084,-0.02708621190722622,0.04301927773500635
1648531546031,-0.07966532913890065,-0.014339759245002116,0.057359036980008465
1648531546062,-0.15136412536391122,-0.011153146079446091,0.01593306582778013
1648531546094,-0.07647871597334462,-0.006373226331112052,0.04301927773500635
1648531546125,-0.0987850081322368,-0.03823935798667231,0.0987850081322368
1648531546156,-0.0860385554700127,-0.04301927773500635,0.10197162129779283
1648531546187,-0.1497708187811332,-0.01593306582778013,0.057359036980008465
1648531546219,-0.19438340309891758,0.003186613165556026,0.03186613165556026
1648531546250,-0.07647871597334462,0.030272825072782245,0.05417242381445244
1648531546281,-0.13224444637057509,0.05895234356278648,-0.039832664569450324
1648531546312,-0.09400508838390277,0.0732921028077886,-0.04779919748334039
1648531546344,-0.055765730397230456,0.0366460514038943,-0.009559839496668077
1648531546375,-0.0493925040661184,-0.011153146079446091,0.03186613165556026
1648531546406,-0.05895234356278648,-0.04779919748334039,0.06373226331112052
1648531546437,-0.11949799370835097,-0.10834484762890488,0.055765730397230456
1648531546469,-0.0987850081322368,-0.0732921028077886,0.10037831471501482
1648531546500,-0.07169879622501059,-0.06054565014556449,0.08763186205279071
1648531546531,-0.07010548964223257,-0.07169879622501059,0.06373226331112052
1648531546562,-0.09241178180112475,-0.06532556989389854,0.05895234356278648
1648531546594,-0.10993815421168289,-0.012746452662224104,-0.030272825072782245
1648531546625,-0.0732921028077886,0.03505274482111628,-0.06691887647667655
1648531546656,-0.05895234356278648,0.04142597115222834,-0.06373226331112052
1648531546687,-0.09081847521834674,0.05257911723167443,-0.039832664569450324
1648531546719,-0.09559839496668078,0.046205890900562374,0.0047799197483340385
1648531546750,-0.08125863572167866,0.030272825072782245,0.044612584317784365
1648531546781,-0.12427791345668501,-0.012746452662224104,0.046205890900562374
1648531546812,-0.15455073852946727,-0.03823935798667231,0.04142597115222834
1648531546844,-0.20394324259558566,-0.046205890900562374,0.028679518490004233
1648531546875,-0.055765730397230456,0.001593306582778013,0.02708621190722622
1648531546906,-0.14339759245002118,-0.011153146079446091,-0.0047799197483340385
1648531546937,-0.07169879622501059,0.001593306582778013,0.01593306582778013
1648531546969,-0.09241178180112475,0.0,0.01752637241055814
1648531547000,-0.09241178180112475,-0.001593306582778013,0.022306292158892183
1648531547031,-0.08922516863556873,-0.006373226331112052,0.039832664569450324
1648531547062,-0.09400508838390277,-0.0047799197483340385,0.0493925040661184
1648531547094,-0.09241178180112475,0.006373226331112052,0.039832664569450324
1648531547125,-0.11471807396001693,0.009559839496668077,0.014339759245002116
1648531547156,-0.08444524888723469,0.003186613165556026,0.006373226331112052
1648531547187,-0.07169879622501059,-0.009559839496668077,-0.001593306582778013
1648531547219,-0.11312476737723892,-0.019119678993336154,-0.01752637241055814
1648531547250,-0.0987850081322368,-0.04779919748334039,-0.009559839496668077
1648531547281,-0.09081847521834674,-0.02708621190722622,0.001593306582778013
1648531547312,-0.05257911723167443,-0.02071298557611417,0.025492905324448208
1648531547344,-0.09719170154945879,0.001593306582778013,0.03186613165556026
1648531547375,-0.10037831471501482,0.0,0.01752637241055814
1648531547406,-0.0987850081322368,-0.0047799197483340385,0.02071298557611417
1648531547437,-0.122684606873907,-0.007966532913890064,0.0047799197483340385
1648531547469,-0.09400508838390277,-0.009559839496668077,0.025492905324448208
1648531547500,-0.07647871597334462,-0.009559839496668077,0.03186613165556026
1648531547531,-0.10356492788057084,-0.022306292158892183,0.012746452662224104
1648531547562,-0.11153146079446091,-0.030272825072782245,0.009559839496668077
1648531547594,-0.1338377529533531,-0.033459438238338274,-0.028679518490004233
1648531547625,-0.12427791345668501,-0.0047799197483340385,-0.039832664569450324
1648531547656,-0.0987850081322368,0.001593306582778013,-0.01593306582778013
1648531547687,-0.06532556989389854,0.001593306582778013,0.02071298557611417
1648531547719,-0.06691887647667655,0.0,0.0366460514038943
1648531547750,-0.07966532913890065,-0.0047799197483340385,0.04301927773500635
1648531547781,-0.19916332284725163,-0.014339759245002116,0.044612584317784365
1648531547812,-0.13861767270168712,0.012746452662224104,0.0366460514038943
1648531547844,-0.12905783320501904,-0.003186613165556026,0.003186613165556026
1648531547875,-0.10834484762890488,-0.009559839496668077,0.0047799197483340385
1648531547906,-0.09400508838390277,-0.007966532913890064,0.009559839496668077
1648531547937,-0.08922516863556873,-0.007966532913890064,0.028679518490004233
1648531547969,-0.10356492788057084,-0.011153146079446091,0.01752637241055814
1648531548000,-0.07966532913890065,-0.019119678993336154,0.046205890900562374
1648531548031,-0.14339759245002118,-0.0047799197483340385,0.023899598741670195
1648531548062,-0.11471807396001693,0.009559839496668077,0.025492905324448208
1648531548094,-0.11312476737723892,0.012746452662224104,0.01752637241055814
1648531548125,-0.08763186205279071,0.0047799197483340385,0.003186613165556026
1648531548156,-0.08285194230445668,-0.006373226331112052,0.0
1648531548187,-0.08922516863556873,-0.01593306582778013,0.003186613165556026
1648531548219,-0.08125863572167866,-0.01593306582778013,-0.006373226331112052
1648531548250,-0.1465842056155772,-0.022306292158892183,0.0
1648531548281,-0.0987850081322368,-0.006373226331112052,0.007966532913890064
1648531548312,-0.10515823446334886,-0.003186613165556026,0.009559839496668077
1648531548344,-0.10834484762890488,0.0047799197483340385,0.019119678993336154
1648531548375,-0.07647871597334462,0.003186613165556026,0.03823935798667231
1648531548406,-0.07010548964223257,0.0,0.028679518490004233
1648531548437,-0.10834484762890488,-0.028679518490004233,0.039832664569450324
1648531548469,-0.10356492788057084,-0.022306292158892183,0.033459438238338274
1648531548500,-0.122684606873907,-0.011153146079446091,0.0047799197483340385
1648531548531,-0.11949799370835097,0.003186613165556026,0.006373226331112052
1648531548562,-0.11471807396001693,0.006373226331112052,0.009559839496668077
1648531548594,-0.09400508838390277,0.012746452662224104,0.006373226331112052
1648531548625,-0.09559839496668078,-0.003186613165556026,0.0047799197483340385
1648531548656,-0.09719170154945879,-0.009559839496668077,0.0047799197483340385
1648531548687,-0.08763186205279071,-0.01593306582778013,0.01593306582778013
1648531548719,-0.09081847521834674,-0.014339759245002116,0.023899598741670195
1648531548750,-0.11153146079446091,-0.001593306582778013,0.02071298557611417
1648531548781,-0.10356492788057084,-0.003186613165556026,0.022306292158892183
1648531548812,-0.10675154104612687,-0.0047799197483340385,0.022306292158892183
1648531548844,-0.10356492788057084,-0.006373226331112052,0.019119678993336154
1648531548875,-0.10834484762890488,-0.0047799197483340385,0.01593306582778013
1648531548906,-0.10356492788057084,-0.0047799197483340385,0.012746452662224104
1648531548937,-0.10675154104612687,-0.009559839496668077,0.01752637241055814
1648531548969,-0.10197162129779283,-0.0047799197483340385,0.025492905324448208
1648531549000,-0.09241178180112475,-0.0047799197483340385,0.03505274482111628
1648531549031,-0.07966532913890065,0.003186613165556026,0.006373226331112052
1648531549062,-0.09081847521834674,-0.011153146079446091,0.01752637241055814
1648531549094,-0.07966532913890065,-0.0366460514038943,0.05257911723167443
1648531549125,-0.15614404511224528,-0.04142597115222834,-0.014339759245002116
1648531549156,-0.16729719119169137,-0.03186613165556026,-0.028679518490004233
1648531549187,-0.09719170154945879,-0.007966532913890064,-0.019119678993336154
1648531549219,-0.11312476737723892,-0.0047799197483340385,-0.022306292158892183
1648531549250,-0.08922516863556873,0.003186613165556026,-0.001593306582778013
1648531549281,-0.08125863572167866,0.009559839496668077,0.006373226331112052
1648531549312,-0.07966532913890065,0.0047799197483340385,0.012746452662224104
1648531549344,-0.07010548964223257,0.011153146079446091,0.023899598741670195
1648531549375,-0.16729719119169137,0.011153146079446091,-0.012746452662224104
1648531549406,-0.14339759245002118,0.014339759245002116,0.007966532913890064
1648531549437,-0.10515823446334886,0.012746452662224104,-0.001593306582778013
1648531549469,-0.10515823446334886,0.009559839496668077,-0.003186613165556026
1648531549500,-0.09081847521834674,-0.006373226331112052,0.012746452662224104
1648531549531,-0.09241178180112475,-0.012746452662224104,0.019119678993336154
1648531549562,-0.10515823446334886,-0.01752637241055814,0.025492905324448208
1648531549594,-0.08922516863556873,-0.01593306582778013,0.03186613165556026
1648531549625,-0.11949799370835097,-0.0047799197483340385,0.0047799197483340385
1648531549656,-0.10515823446334886,0.0,0.001593306582778013
1648531549687,-0.10993815421168289,0.0,0.0
1648531549719,-0.08763186205279071,-0.012746452662224104,0.055765730397230456
1648531549750,-0.07807202255612264,-0.0047799197483340385,0.023899598741670195
1648531549781,-0.07807202255612264,-0.03505274482111628,0.04142597115222834
1648531549812,-0.13224444637057509,-0.033459438238338274,0.030272825072782245
1648531549844,-0.12109130029112898,-0.012746452662224104,0.006373226331112052
1648531549875,-0.0987850081322368,-0.001593306582778013,0.006373226331112052
1648531549906,-0.10197162129779283,0.0,0.0
1648531549937,-0.122684606873907,0.009559839496668077,-0.014339759245002116
1648531549969,-0.11790468712557296,0.009559839496668077,-0.009559839496668077
1648531550000,-0.0987850081322368,-0.006373226331112052,0.009559839496668077
1648531550031,-0.10197162129779283,-0.014339759245002116,0.019119678993336154
1648531550062,-0.11790468712557296,-0.011153146079446091,0.006373226331112052
1648531550094,-0.09241178180112475,-0.0047799197483340385,0.02708621190722622
1648531550125,-0.07169879622501059,-0.007966532913890064,0.012746452662224104
1648531550156,-0.07169879622501059,-0.022306292158892183,0.02708621190722622
1648531550187,-0.1449908990327992,-0.04301927773500635,0.022306292158892183
1648531550219,-0.10515823446334886,-0.02071298557611417,0.0047799197483340385
1648531550250,-0.0860385554700127,-0.014339759245002116,0.014339759245002116
1648531550281,-0.10197162129779283,0.007966532913890064,-0.007966532913890064
1648531550312,-0.09559839496668078,0.01593306582778013,-0.012746452662224104
1648531550344,-0.0987850081322368,0.011153146079446091,0.011153146079446091
1648531550375,-0.09719170154945879,0.01593306582778013,0.02071298557611417
1648531550406,-0.08444524888723469,0.003186613165556026,0.02708621190722622
1648531550437,-0.08763186205279071,-0.009559839496668077,0.006373226331112052
1648531550469,-0.08444524888723469,-0.023899598741670195,0.0047799197483340385
1648531550500,-0.1354310595361311,-0.02708621190722622,-0.001593306582778013
1648531550531,-0.11471807396001693,0.001593306582778013,-0.03823935798667231
1648531550562,-0.11790468712557296,0.011153146079446091,-0.023899598741670195
1648531550594,-0.07010548964223257,0.006373226331112052,0.012746452662224104
1648531550625,-0.09241178180112475,-0.009559839496668077,0.039832664569450324
1648531550656,-0.08763186205279071,-0.012746452662224104,0.04142597115222834
1648531550687,-0.12746452662224103,-0.02708621190722622,0.033459438238338274
1648531550719,-0.10515823446334886,-0.01593306582778013,0.02071298557611417
1648531550750,-0.11631138054279495,-0.011153146079446091,0.0047799197483340385
1648531550781,-0.12427791345668501,-0.001593306582778013,-0.0047799197483340385
1648531550812,-0.09559839496668078,-0.001593306582778013,0.02708621190722622
1648531550844,-0.08763186205279071,0.001593306582778013,0.007966532913890064
1648531550875,-0.0748854093905666,-0.011153146079446091,0.06851218305945456
1648531550906,-0.10993815421168289,-0.0047799197483340385,0.06373226331112052
1648531550937,-0.11949799370835097,0.028679518490004233,0.01593306582778013
1648531550969,-0.122684606873907,0.033459438238338274,0.014339759245002116
1648531551000,-0.09559839496668078,0.028679518490004233,0.003186613165556026
1648531551031,-0.055765730397230456,0.012746452662224104,-0.007966532913890064
1648531551062,-0.07169879622501059,-0.006373226331112052,-0.0047799197483340385
1648531551094,-0.0860385554700127,-0.044612584317784365,-0.007966532913890064
1648531551125,-0.20394324259558566,-0.09241178180112475,-0.012746452662224104
1648531551156,-0.1338377529533531,-0.04142597115222834,-0.014339759245002116
1648531551187,-0.10834484762890488,-0.01593306582778013,-0.003186613165556026
1648531551219,-0.10197162129779283,-0.003186613165556026,0.03186613165556026
1648531551250,-0.10515823446334886,0.0047799197483340385,0.01752637241055814
1648531551281,-0.13224444637057509,0.006373226331112052,-0.003186613165556026
1648531551312,-0.0987850081322368,-0.009559839496668077,0.02071298557611417
1648531551344,-0.06691887647667655,-0.006373226331112052,0.02708621190722622
1648531551375,-0.10515823446334886,-0.01752637241055814,0.02071298557611417
1648531551406,-0.10356492788057084,-0.01593306582778013,0.02708621190722622
1648531551437,-0.12109130029112898,-0.001593306582778013,0.007966532913890064
1648531551469,-0.11949799370835097,0.001593306582778013,0.0047799197483340385
1648531551500,-0.10515823446334886,-0.0047799197483340385,0.007966532913890064
1648531551531,-0.08763186205279071,-0.019119678993336154,0.033459438238338274
1648531551562,-0.0987850081322368,-0.009559839496668077,0.02071298557611417
1648531551594,-0.0732921028077886,-0.0047799197483340385,0.012746452662224104
1648531551625,-0.09081847521834674,-0.014339759245002116,0.03505274482111628
1648531551656,-0.09241178180112475,-0.019119678993336154,0.050985810648896415
1648531551687,-0.13065113978779708,-0.007966532913890064,0.003186613165556026
1648531551719,-0.11471807396001693,-0.006373226331112052,0.01752637241055814
1648531551750,-0.11312476737723892,0.001593306582778013,0.003186613165556026
1648531551781,-0.08444524888723469,0.003186613165556026,0.007966532913890064
1648531551812,-0.10037831471501482,-0.007966532913890064,0.003186613165556026
1648531551844,-0.0987850081322368,-0.009559839496668077,0.0047799197483340385
1648531551875,-0.10675154104612687,-0.007966532913890064,0.012746452662224104
1648531551906,-0.09719170154945879,-0.006373226331112052,0.019119678993336154
1648531551937,-0.07966532913890065,-0.003186613165556026,0.003186613165556026
1648531551969,-0.10675154104612687,-0.023899598741670195,0.028679518490004233
1648531552000,-0.10675154104612687,-0.023899598741670195,0.04779919748334039
1648531552031,-0.11471807396001693,-0.007966532913890064,0.01593306582778013
1648531552063,-0.10993815421168289,-0.0047799197483340385,0.014339759245002116
1648531552094,-0.11631138054279495,0.009559839496668077,0.0
1648531552125,-0.11631138054279495,0.003186613165556026,-0.003186613165556026
1648531552156,-0.09719170154945879,-0.001593306582778013,0.0047799197483340385
1648531552188,-0.08444524888723469,-0.019119678993336154,0.028679518490004233
1648531552219,-0.08922516863556873,-0.01752637241055814,0.03186613165556026
1648531552250,-0.10834484762890488,-0.009559839496668077,0.02071298557611417
1648531552281,-0.12427791345668501,0.001593306582778013,0.001593306582778013
1648531552313,-0.11949799370835097,0.006373226331112052,0.0
1648531552344,-0.06532556989389854,-0.014339759245002116,0.03823935798667231
1648531552375,-0.10515823446334886,-0.014339759245002116,0.011153146079446091
1648531552406,-0.0748854093905666,-0.023899598741670195,0.02708621190722622
1648531552438,-0.1338377529533531,-0.019119678993336154,-0.003186613165556026
1648531552469,-0.12587122003946302,0.012746452662224104,-0.02708621190722622
1648531552500,-0.122684606873907,0.022306292158892183,-0.033459438238338274
1648531552531,-0.08922516863556873,0.028679518490004233,0.0047799197483340385
1648531552563,-0.07010548964223257,0.025492905324448208,0.01593306582778013
1648531552594,-0.0732921028077886,0.01752637241055814,0.033459438238338274
1648531552625,-0.07966532913890065,-0.012746452662224104,0.0366460514038943
1648531552656,-0.09081847521834674,-0.025492905324448208,0.03505274482111628
1648531552688,-0.09559839496668078,-0.023899598741670195,0.022306292158892183
1648531552719,-0.20394324259558566,-0.022306292158892183,0.023899598741670195
1648531552750,-0.0987850081322368,-0.001593306582778013,0.01593306582778013
1648531552781,-0.12746452662224103,0.006373226331112052,0.007966532913890064
1648531552813,-0.10356492788057084,0.003186613165556026,0.019119678993336154
1648531552844,-0.10515823446334886,-0.007966532913890064,0.006373226331112052
1648531552875,-0.10675154104612687,-0.006373226331112052,0.012746452662224104
1648531552906,-0.0987850081322368,-0.006373226331112052,0.019119678993336154
1648531552938,-0.10197162129779283,-0.0047799197483340385,0.01593306582778013
1648531552969,-0.10993815421168289,-0.007966532913890064,0.003186613165556026
1648531553000,-0.10197162129779283,-0.0047799197483340385,0.001593306582778013
1648531553031,-0.10993815421168289,-0.009559839496668077,-0.006373226331112052
1648531553063,-0.10037831471501482,-0.007966532913890064,-0.0047799197483340385
1648531553094,-0.0987850081322368,-0.011153146079446091,-0.012746452662224104
1648531553125,-0.09241178180112475,-0.012746452662224104,-0.02071298557611417
1648531553156,-0.10037831471501482,-0.012746452662224104,-0.028679518490004233
1648531553188,-0.09241178180112475,-0.014339759245002116,-0.033459438238338274
1648531553219,-0.0987850081322368,-0.01752637241055814,-0.04779919748334039
1648531553250,-0.10197162129779283,-0.019119678993336154,-0.0493925040661184
1648531553281,-0.10834484762890488,-0.01752637241055814,-0.06691887647667655
1648531553313,-0.0987850081322368,-0.011153146079446091,-0.06532556989389854
1648531553344,-0.07647871597334462,-0.023899598741670195,-0.006373226331112052
1648531553375,-0.10834484762890488,-0.023899598741670195,0.0493925040661184
1648531553406,-0.062138956728342506,-0.009559839496668077,0.062138956728342506
1648531553438,-0.0987850081322368,-0.007966532913890064,0.039832664569450324
1648531553469,-0.11631138054279495,-0.011153146079446091,0.006373226331112052
1648531553500,-0.12109130029112898,-0.009559839496668077,0.0
1648531553531,-0.10675154104612687,-0.009559839496668077,0.01752637241055814
1648531553563,-0.09559839496668078,-0.009559839496668077,0.02708621190722622
1648531553594,-0.09400508838390277,-0.011153146079446091,0.023899598741670195
1648531553625,-0.10675154104612687,-0.011153146079446091,0.009559839496668077
1648531553656,-0.10356492788057084,-0.011153146079446091,0.007966532913890064
1648531553688,-0.11471807396001693,-0.007966532913890064,0.009559839496668077
1648531553719,-0.07010548964223257,-0.01593306582778013,0.04779919748334039
1648531553750,-0.08125863572167866,-0.009559839496668077,0.02071298557611417
1648531553781,-0.09719170154945879,-0.01752637241055814,0.022306292158892183
1648531553813,-0.09719170154945879,-0.019119678993336154,0.030272825072782245
1648531553844,-0.1370243661189091,0.0,-0.001593306582778013
1648531553875,-0.10356492788057084,-0.001593306582778013,0.019119678993336154
1648531553906,-0.06054565014556449,-0.01593306582778013,0.05257911723167443
1648531553938,-0.09400508838390277,-0.01752637241055814,0.023899598741670195
1648531553969,-0.08125863572167866,-0.022306292158892183,0.039832664569450324
1648531554000,-0.08125863572167866,-0.01752637241055814,0.0366460514038943
1648531554031,-0.1497708187811332,-0.007966532913890064,-0.019119678993336154
1648531554063,-0.10197162129779283,-0.006373226331112052,-0.006373226331112052
1648531554094,-0.14180428586724317,-0.02708621190722622,0.001593306582778013
1648531554125,-0.10834484762890488,-0.046205890900562374,0.039832664569450324
1648531554156,-0.13861767270168712,-0.04779919748334039,0.030272825072782245
1648531554188,-0.13224444637057509,-0.03823935798667231,0.014339759245002116
1648531554219,-0.09559839496668078,-0.007966532913890064,0.025492905324448208
1648531554250,-0.07807202255612264,0.025492905324448208,-0.012746452662224104
1648531554281,-0.06532556989389854,0.06054565014556449,-0.023899598741670195
1648531554313,-0.03186613165556026,0.05895234356278648,-0.009559839496668077
1648531554344,-0.055765730397230456,0.03505274482111628,0.006373226331112052
1648531554375,-0.07010548964223257,0.001593306582778013,0.03823935798667231
1648531554406,-0.11790468712557296,-0.03505274482111628,0.046205890900562374
1648531554438,-0.10834484762890488,-0.0366460514038943,0.0748854093905666
1648531554469,-0.09241178180112475,-0.05417242381445244,0.057359036980008465
1648531554500,-0.0987850081322368,-0.07010548964223257,0.0493925040661184
1648531554531,-0.11471807396001693,-0.046205890900562374,0.03186613165556026
1648531554563,-0.09559839496668078,-0.019119678993336154,0.030272825072782245
1648531554594,-0.05895234356278648,0.030272825072782245,0.028679518490004233
1648531554625,-0.025492905324448208,0.033459438238338274,0.0493925040661184
1648531554656,-0.007966532913890064,0.02071298557611417,0.06532556989389854
1648531554688,-0.05895234356278648,-0.050985810648896415,0.09719170154945879
1648531554719,-0.10834484762890488,-0.08763186205279071,0.1497708187811332
1648531554750,-0.10675154104612687,-0.06691887647667655,0.12746452662224103
1648531554781,-0.10993815421168289,-0.03823935798667231,0.057359036980008465
1648531554813,-0.10037831471501482,-0.0366460514038943,0.055765730397230456
1648531554844,-0.10356492788057084,-0.030272825072782245,0.050985810648896415
1648531554875,-0.12109130029112898,0.03823935798667231,-0.0047799197483340385
1648531554906,-0.09081847521834674,0.057359036980008465,-0.007966532913890064
1648531554938,-0.09241178180112475,0.0732921028077886,-0.014339759245002116
1648531554969,-0.11312476737723892,0.0732921028077886,-0.039832664569450324
1648531555000,-0.09559839496668078,0.06691887647667655,-0.03186613165556026
1648531555031,-0.09081847521834674,0.04142597115222834,-0.02071298557611417
1648531555063,-0.0860385554700127,0.02708621190722622,-0.003186613165556026
1648531555094,-0.10197162129779283,-0.023899598741670195,0.01752637241055814
1648531555125,-0.07010548964223257,-0.05417242381445244,0.03505274482111628
1648531555156,-0.04142597115222834,-0.055765730397230456,0.04779919748334039
1648531555188,-0.0987850081322368,-0.10356492788057084,0.050985810648896415
1648531555219,-0.057359036980008465,-0.07647871597334462,0.023899598741670195
1648531555250,-0.0860385554700127,-0.0732921028077886,0.014339759245002116
1648531555281,-0.05895234356278648,-0.04142597115222834,0.06851218305945456
1648531555313,-0.06532556989389854,-0.04779919748334039,0.06373226331112052
1648531555344,-0.14339759245002118,-0.09400508838390277,0.02708621190722622
1648531555375,-0.0860385554700127,-0.0860385554700127,0.05417242381445244
1648531555406,-0.07169879622501059,-0.08763186205279071,0.03823935798667231
1648531555438,-0.1449908990327992,-0.06532556989389854,-0.019119678993336154
1648531555469,-0.17526372410558141,-0.030272825072782245,-0.0493925040661184
1648531555500,-0.11949799370835097,-0.009559839496668077,-0.01752637241055814
1648531555531,-0.11312476737723892,0.022306292158892183,-0.050985810648896415
1648531555563,-0.12427791345668501,0.039832664569450324,-0.07807202255612264
1648531555594,-0.062138956728342506,0.04301927773500635,-0.06054565014556449
1648531555625,-0.03823935798667231,0.06691887647667655,-0.09081847521834674
1648531555656,-0.023899598741670195,0.062138956728342506,-0.08444524888723469
1648531555688,-0.01593306582778013,0.05257911723167443,-0.06851218305945456
1648531555719,-0.044612584317784365,0.03505274482111628,-0.0366460514038943
1648531555750,-0.05257911723167443,0.022306292158892183,-0.006373226331112052
1648531555781,-0.06532556989389854,0.003186613165556026,0.0047799197483340385
1648531555813,-0.10993815421168289,-0.009559839496668077,-0.007966532913890064
1648531555844,-0.1959767096816956,-0.046205890900562374,-0.030272825072782245
1648531555875,-0.20394324259558566,-0.03186613165556026,-0.044612584317784365
1648531555906,-0.15614404511224528,0.01593306582778013,-0.08444524888723469
1648531555938,0.033459438238338274,0.02708621190722622,0.01593306582778013
1648531555969,-0.050985810648896415,-0.023899598741670195,0.0732921028077886
1648531556000,-0.1832302570194715,-0.06691887647667655,0.05417242381445244
1648531556031,-0.09719170154945879,-0.003186613165556026,0.023899598741670195
1648531556063,-0.11790468712557296,-0.01752637241055814,0.030272825072782245
1648531556094,-0.08285194230445668,-0.001593306582778013,0.023899598741670195
1648531556125,-0.08763186205279071,-0.014339759245002116,0.03823935798667231
1648531556156,-0.08125863572167866,-0.01752637241055814,0.04301927773500635
1648531556188,-0.05417242381445244,-0.019119678993336154,0.046205890900562374
1648531556219,-0.050985810648896415,-0.014339759245002116,0.02071298557611417
1648531556250,-0.06851218305945456,-0.01752637241055814,-0.014339759245002116
1648531556281,-0.17526372410558141,-0.050985810648896415,-0.10993815421168289
1648531556313,-0.18004364385391547,-0.06054565014556449,-0.09081847521834674
1648531556344,-0.14180428586724317,-0.019119678993336154,-0.05895234356278648
1648531556375,-0.1449908990327992,0.02708621190722622,-0.057359036980008465
1648531556406,-0.09719170154945879,0.04301927773500635,-0.0366460514038943
1648531556438,-0.06691887647667655,0.05895234356278648,-0.044612584317784365
1648531556469,-0.08125863572167866,0.03505274482111628,-0.0366460514038943
1648531556500,-0.10356492788057084,0.03823935798667231,-0.039832664569450324
1648531556531,-0.1832302570194715,0.03186613165556026,-0.0366460514038943
1648531556563,-0.19119678993336156,0.03186613165556026,-0.030272825072782245
1648531556594,-0.19438340309891758,0.02708621190722622,-0.046205890900562374
1648531556625,-0.1864168701850275,0.028679518490004233,-0.05257911723167443
1648531556656,-0.1449908990327992,0.03186613165556026,-0.0493925040661184
1648531556688,-0.0987850081322368,0.05417242381445244,-0.044612584317784365
1648531556719,-0.04301927773500635,0.030272825072782245,-0.003186613165556026
1648531556750,-0.039832664569450324,0.03823935798667231,-0.003186613165556026
1648531556781,-0.0493925040661184,0.022306292158892183,-0.0047799197483340385
1648531556813,-0.09400508838390277,0.0366460514038943,0.009559839496668077
1648531556844,-0.1370243661189091,0.0,0.006373226331112052
1648531556875,-0.12109130029112898,-0.06851218305945456,0.011153146079446091
1648531556906,-0.08444524888723469,-0.06373226331112052,0.02071298557611417
1648531556938,-0.05895234356278648,-0.07807202255612264,0.030272825072782245
1648531556969,-0.04301927773500635,-0.08922516863556873,0.044612584317784365
1648531557000,-0.03823935798667231,-0.12746452662224103,0.0493925040661184
1648531557031,-0.007966532913890064,-0.13065113978779708,0.057359036980008465
1648531557063,-0.001593306582778013,-0.1449908990327992,0.07010548964223257
1648531557094,0.003186613165556026,-0.1704838043572474,0.062138956728342506
1648531557125,-0.04142597115222834,-0.1481775121983552,0.0493925040661184
1648531557156,-0.04142597115222834,-0.12427791345668501,0.028679518490004233
1648531557188,-0.13224444637057509,-0.16729719119169137,-0.019119678993336154
1648531557219,-0.09559839496668078,-0.20394324259558566,-0.02708621190722622
1648531557250,-0.15136412536391122,-0.10834484762890488,-0.0047799197483340385
1648531557281,-0.09400508838390277,0.03186613165556026,0.0860385554700127
1648531557313,-0.01752637241055814,0.06373226331112052,0.09559839496668078
1648531557344,-0.05257911723167443,-0.02071298557611417,0.10197162129779283
1648531557375,-0.09719170154945879,-0.06054565014556449,0.10037831471501482
1648531557406,-0.11153146079446091,-0.08125863572167866,0.014339759245002116
1648531557438,-0.08285194230445668,-0.14021097928446513,-0.001593306582778013
1648531557469,-0.16411057802613532,-0.20394324259558566,0.0860385554700127
1648531557500,-0.0732921028077886,-0.20394324259558566,0.16570388460891336
1648531557531,-0.20394324259558566,-0.1577373516950233,-0.1338377529533531
1648531557563,-0.11949799370835097,-0.1449908990327992,-0.08763186205279071
1648531557594,-0.09559839496668078,-0.050985810648896415,0.06054565014556449
1648531557625,-0.12109130029112898,-0.014339759245002116,0.011153146079446091
1648531557656,0.06054565014556449,0.05417242381445244,0.0748854093905666
1648531557688,-0.20394324259558566,-0.039832664569450324,0.10993815421168289
1648531557719,-0.025492905324448208,-0.04301927773500635,0.050985810648896415
1648531557750,-0.11153146079446091,-0.044612584317784365,0.03186613165556026
1648531557781,-0.02708621190722622,-0.057359036980008465,0.023899598741670195
1648531557813,-0.05257911723167443,-0.033459438238338274,0.01752637241055814
1648531557844,-0.046205890900562374,-0.012746452662224104,0.07966532913890065
1648531557875,-0.0366460514038943,0.03823935798667231,0.02708621190722622
1648531557906,-0.011153146079446091,0.055765730397230456,0.007966532913890064
1648531557938,-0.003186613165556026,0.05895234356278648,0.023899598741670195
1648531557969,0.014339759245002116,0.06373226331112052,0.028679518490004233
1648531558000,0.023899598741670195,0.05417242381445244,0.02071298557611417
1648531558031,-0.003186613165556026,0.0366460514038943,0.007966532913890064
1648531558063,-0.003186613165556026,0.0493925040661184,-0.01593306582778013
1648531558094,-0.06691887647667655,0.05895234356278648,0.001593306582778013
1648531558125,-0.08763186205279071,0.057359036980008465,0.0
1648531558156,-0.10197162129779283,0.044612584317784365,0.02071298557611417
1648531558188,-0.12746452662224103,0.050985810648896415,0.009559839496668077
1648531558219,-0.1465842056155772,0.04142597115222834,0.022306292158892183
1648531558250,-0.17526372410558141,0.0493925040661184,0.007966532913890064
1648531558281,-0.14180428586724317,0.08285194230445668,-0.030272825072782245
1648531558313,-0.1449908990327992,0.10037831471501482,-0.0366460514038943
1648531558344,-0.122684606873907,0.12427791345668501,-0.07010548964223257
1648531558375,-0.06373226331112052,0.1338377529533531,-0.06851218305945456
1648531558406,-0.022306292158892183,0.12109130029112898,-0.046205890900562374
1648531558438,-0.0366460514038943,0.12587122003946302,-0.04142597115222834
1648531558469,-0.014339759245002116,0.10515823446334886,-0.04779919748334039
1648531558500,-0.05257911723167443,0.09081847521834674,-0.05417242381445244
1648531558531,-0.08922516863556873,0.01752637241055814,-0.06851218305945456
1648531558563,-0.11790468712557296,0.0366460514038943,-0.05895234356278648
1648531558594,-0.09719170154945879,-0.023899598741670195,-0.014339759245002116
1648531558625,-0.0860385554700127,0.0047799197483340385,-0.02708621190722622
1648531558656,-0.0732921028077886,0.033459438238338274,-0.030272825072782245
1648531558688,-0.09400508838390277,0.04779919748334039,-0.006373226331112052
1648531558719,-0.0748854093905666,0.009559839496668077,0.01593306582778013
1648531558750,-0.09400508838390277,-0.009559839496668077,0.023899598741670195
1648531558781,-0.08763186205279071,0.025492905324448208,0.007966532913890064
1648531558813,-0.09400508838390277,0.02708621190722622,0.02071298557611417
1648531558844,-0.06373226331112052,0.02708621190722622,0.02708621190722622
1648531558875,-0.0987850081322368,0.006373226331112052,0.04142597115222834
1648531558906,-0.05417242381445244,0.009559839496668077,0.03823935798667231
1648531558938,-0.12109130029112898,-0.006373226331112052,0.02708621190722622
